screen_width,window_height,workerId,age,window_width,comments,curId,race,vision,curTime,gender,userAgent,runTime,ethnicity,screen_height,blockTime,Block,rt,totalPoints,response_location,transition,rightpoints,trial,leftpoints,task_attempt,error
1536,658,A174Y3C2S7LYP6,25,714,"Eugene. Didn't encounter any bugs. Instructions were very clear, task was easy to understand. From opening your document in slack to this page, it took ~14.5 minutes. Overall, it seems to be easy to use and functioning properly. ",378XPAWRUDXN57GX3I3ENYLSYTPIAS,white,corrected,01/07/2018@11:57:40,male,"Mozilla/5.0 (Windows NT 10.0; Win64; x64) AppleWebKit/537.36 (KHTML, like Gecko) Chrome/67.0.3396.99 Safari/537.36",382.062,hispanic,864,150.609,1,1591,2,left,StartBlock,2,1,2,color,0
1536,658,A174Y3C2S7LYP6,25,714,"Eugene. Didn't encounter any bugs. Instructions were very clear, task was easy to understand. From opening your document in slack to this page, it took ~14.5 minutes. Overall, it seems to be easy to use and functioning properly. ",378XPAWRUDXN57GX3I3ENYLSYTPIAS,white,corrected,01/07/2018@11:57:40,male,"Mozilla/5.0 (Windows NT 10.0; Win64; x64) AppleWebKit/537.36 (KHTML, like Gecko) Chrome/67.0.3396.99 Safari/537.36",382.062,hispanic,864,150.609,1,933,4,left,Repeat,2,2,2,color,0
1536,658,A174Y3C2S7LYP6,25,714,"Eugene. Didn't encounter any bugs. Instructions were very clear, task was easy to understand. From opening your document in slack to this page, it took ~14.5 minutes. Overall, it seems to be easy to use and functioning properly. ",378XPAWRUDXN57GX3I3ENYLSYTPIAS,white,corrected,01/07/2018@11:57:40,male,"Mozilla/5.0 (Windows NT 10.0; Win64; x64) AppleWebKit/537.36 (KHTML, like Gecko) Chrome/67.0.3396.99 Safari/537.36",382.062,hispanic,864,150.609,1,545,6,right,Switch,2,3,1,shape,0
1536,658,A174Y3C2S7LYP6,25,714,"Eugene. Didn't encounter any bugs. Instructions were very clear, task was easy to understand. From opening your document in slack to this page, it took ~14.5 minutes. Overall, it seems to be easy to use and functioning properly. ",378XPAWRUDXN57GX3I3ENYLSYTPIAS,white,corrected,01/07/2018@11:57:40,male,"Mozilla/5.0 (Windows NT 10.0; Win64; x64) AppleWebKit/537.36 (KHTML, like Gecko) Chrome/67.0.3396.99 Safari/537.36",382.062,hispanic,864,150.609,1,954,8,left,Switch,1,4,2,color,0
1536,658,A174Y3C2S7LYP6,25,714,"Eugene. Didn't encounter any bugs. Instructions were very clear, task was easy to understand. From opening your document in slack to this page, it took ~14.5 minutes. Overall, it seems to be easy to use and functioning properly. ",378XPAWRUDXN57GX3I3ENYLSYTPIAS,white,corrected,01/07/2018@11:57:40,male,"Mozilla/5.0 (Windows NT 10.0; Win64; x64) AppleWebKit/537.36 (KHTML, like Gecko) Chrome/67.0.3396.99 Safari/537.36",382.062,hispanic,864,150.609,1,433,10,right,Switch,2,5,1,shape,0
1536,658,A174Y3C2S7LYP6,25,714,"Eugene. Didn't encounter any bugs. Instructions were very clear, task was easy to understand. From opening your document in slack to this page, it took ~14.5 minutes. Overall, it seems to be easy to use and functioning properly. ",378XPAWRUDXN57GX3I3ENYLSYTPIAS,white,corrected,01/07/2018@11:57:40,male,"Mozilla/5.0 (Windows NT 10.0; Win64; x64) AppleWebKit/537.36 (KHTML, like Gecko) Chrome/67.0.3396.99 Safari/537.36",382.062,hispanic,864,150.609,1,564,12,right,Repeat,2,6,1,shape,0
1536,658,A174Y3C2S7LYP6,25,714,"Eugene. Didn't encounter any bugs. Instructions were very clear, task was easy to understand. From opening your document in slack to this page, it took ~14.5 minutes. Overall, it seems to be easy to use and functioning properly. ",378XPAWRUDXN57GX3I3ENYLSYTPIAS,white,corrected,01/07/2018@11:57:40,male,"Mozilla/5.0 (Windows NT 10.0; Win64; x64) AppleWebKit/537.36 (KHTML, like Gecko) Chrome/67.0.3396.99 Safari/537.36",382.062,hispanic,864,150.609,1,842,13,left,Switch,1,7,1,color,0
1536,658,A174Y3C2S7LYP6,25,714,"Eugene. Didn't encounter any bugs. Instructions were very clear, task was easy to understand. From opening your document in slack to this page, it took ~14.5 minutes. Overall, it seems to be easy to use and functioning properly. ",378XPAWRUDXN57GX3I3ENYLSYTPIAS,white,corrected,01/07/2018@11:57:40,male,"Mozilla/5.0 (Windows NT 10.0; Win64; x64) AppleWebKit/537.36 (KHTML, like Gecko) Chrome/67.0.3396.99 Safari/537.36",382.062,hispanic,864,150.609,1,678,15,right,Switch,2,8,1,shape,0
1536,658,A174Y3C2S7LYP6,25,714,"Eugene. Didn't encounter any bugs. Instructions were very clear, task was easy to understand. From opening your document in slack to this page, it took ~14.5 minutes. Overall, it seems to be easy to use and functioning properly. ",378XPAWRUDXN57GX3I3ENYLSYTPIAS,white,corrected,01/07/2018@11:57:40,male,"Mozilla/5.0 (Windows NT 10.0; Win64; x64) AppleWebKit/537.36 (KHTML, like Gecko) Chrome/67.0.3396.99 Safari/537.36",382.062,hispanic,864,150.609,1,1292,15,right,Repeat,2,9,2,shape,1
1536,658,A174Y3C2S7LYP6,25,714,"Eugene. Didn't encounter any bugs. Instructions were very clear, task was easy to understand. From opening your document in slack to this page, it took ~14.5 minutes. Overall, it seems to be easy to use and functioning properly. ",378XPAWRUDXN57GX3I3ENYLSYTPIAS,white,corrected,01/07/2018@11:57:40,male,"Mozilla/5.0 (Windows NT 10.0; Win64; x64) AppleWebKit/537.36 (KHTML, like Gecko) Chrome/67.0.3396.99 Safari/537.36",382.062,hispanic,864,150.609,1,2061,18,left,Switch,2,10,3,color,0
1536,658,A174Y3C2S7LYP6,25,714,"Eugene. Didn't encounter any bugs. Instructions were very clear, task was easy to understand. From opening your document in slack to this page, it took ~14.5 minutes. Overall, it seems to be easy to use and functioning properly. ",378XPAWRUDXN57GX3I3ENYLSYTPIAS,white,corrected,01/07/2018@11:57:40,male,"Mozilla/5.0 (Windows NT 10.0; Win64; x64) AppleWebKit/537.36 (KHTML, like Gecko) Chrome/67.0.3396.99 Safari/537.36",382.062,hispanic,864,150.609,1,1062,21,right,Switch,3,11,2,shape,0
1536,658,A174Y3C2S7LYP6,25,714,"Eugene. Didn't encounter any bugs. Instructions were very clear, task was easy to understand. From opening your document in slack to this page, it took ~14.5 minutes. Overall, it seems to be easy to use and functioning properly. ",378XPAWRUDXN57GX3I3ENYLSYTPIAS,white,corrected,01/07/2018@11:57:40,male,"Mozilla/5.0 (Windows NT 10.0; Win64; x64) AppleWebKit/537.36 (KHTML, like Gecko) Chrome/67.0.3396.99 Safari/537.36",382.062,hispanic,864,150.609,1,745,24,right,Repeat,3,12,3,shape,0
1536,658,A174Y3C2S7LYP6,25,714,"Eugene. Didn't encounter any bugs. Instructions were very clear, task was easy to understand. From opening your document in slack to this page, it took ~14.5 minutes. Overall, it seems to be easy to use and functioning properly. ",378XPAWRUDXN57GX3I3ENYLSYTPIAS,white,corrected,01/07/2018@11:57:40,male,"Mozilla/5.0 (Windows NT 10.0; Win64; x64) AppleWebKit/537.36 (KHTML, like Gecko) Chrome/67.0.3396.99 Safari/537.36",382.062,hispanic,864,150.609,1,1209,27,right,Repeat,3,13,3,shape,0
1536,658,A174Y3C2S7LYP6,25,714,"Eugene. Didn't encounter any bugs. Instructions were very clear, task was easy to understand. From opening your document in slack to this page, it took ~14.5 minutes. Overall, it seems to be easy to use and functioning properly. ",378XPAWRUDXN57GX3I3ENYLSYTPIAS,white,corrected,01/07/2018@11:57:40,male,"Mozilla/5.0 (Windows NT 10.0; Win64; x64) AppleWebKit/537.36 (KHTML, like Gecko) Chrome/67.0.3396.99 Safari/537.36",382.062,hispanic,864,150.609,1,518,30,right,Repeat,3,14,3,shape,0
1536,658,A174Y3C2S7LYP6,25,714,"Eugene. Didn't encounter any bugs. Instructions were very clear, task was easy to understand. From opening your document in slack to this page, it took ~14.5 minutes. Overall, it seems to be easy to use and functioning properly. ",378XPAWRUDXN57GX3I3ENYLSYTPIAS,white,corrected,01/07/2018@11:57:40,male,"Mozilla/5.0 (Windows NT 10.0; Win64; x64) AppleWebKit/537.36 (KHTML, like Gecko) Chrome/67.0.3396.99 Safari/537.36",382.062,hispanic,864,150.609,1,729,33,left,Switch,2,15,3,color,0
1536,658,A174Y3C2S7LYP6,25,714,"Eugene. Didn't encounter any bugs. Instructions were very clear, task was easy to understand. From opening your document in slack to this page, it took ~14.5 minutes. Overall, it seems to be easy to use and functioning properly. ",378XPAWRUDXN57GX3I3ENYLSYTPIAS,white,corrected,01/07/2018@11:57:40,male,"Mozilla/5.0 (Windows NT 10.0; Win64; x64) AppleWebKit/537.36 (KHTML, like Gecko) Chrome/67.0.3396.99 Safari/537.36",382.062,hispanic,864,150.609,1,629,36,left,Repeat,3,16,3,color,0
1536,658,A174Y3C2S7LYP6,25,714,"Eugene. Didn't encounter any bugs. Instructions were very clear, task was easy to understand. From opening your document in slack to this page, it took ~14.5 minutes. Overall, it seems to be easy to use and functioning properly. ",378XPAWRUDXN57GX3I3ENYLSYTPIAS,white,corrected,01/07/2018@11:57:40,male,"Mozilla/5.0 (Windows NT 10.0; Win64; x64) AppleWebKit/537.36 (KHTML, like Gecko) Chrome/67.0.3396.99 Safari/537.36",382.062,hispanic,864,150.609,1,495,39,left,Repeat,3,17,3,color,0
1536,658,A174Y3C2S7LYP6,25,714,"Eugene. Didn't encounter any bugs. Instructions were very clear, task was easy to understand. From opening your document in slack to this page, it took ~14.5 minutes. Overall, it seems to be easy to use and functioning properly. ",378XPAWRUDXN57GX3I3ENYLSYTPIAS,white,corrected,01/07/2018@11:57:40,male,"Mozilla/5.0 (Windows NT 10.0; Win64; x64) AppleWebKit/537.36 (KHTML, like Gecko) Chrome/67.0.3396.99 Safari/537.36",382.062,hispanic,864,150.609,1,819,42,right,Switch,3,18,3,shape,0
1536,658,A174Y3C2S7LYP6,25,714,"Eugene. Didn't encounter any bugs. Instructions were very clear, task was easy to understand. From opening your document in slack to this page, it took ~14.5 minutes. Overall, it seems to be easy to use and functioning properly. ",378XPAWRUDXN57GX3I3ENYLSYTPIAS,white,corrected,01/07/2018@11:57:40,male,"Mozilla/5.0 (Windows NT 10.0; Win64; x64) AppleWebKit/537.36 (KHTML, like Gecko) Chrome/67.0.3396.99 Safari/537.36",382.062,hispanic,864,150.609,1,814,45,left,Switch,2,19,3,color,0
1536,658,A174Y3C2S7LYP6,25,714,"Eugene. Didn't encounter any bugs. Instructions were very clear, task was easy to understand. From opening your document in slack to this page, it took ~14.5 minutes. Overall, it seems to be easy to use and functioning properly. ",378XPAWRUDXN57GX3I3ENYLSYTPIAS,white,corrected,01/07/2018@11:57:40,male,"Mozilla/5.0 (Windows NT 10.0; Win64; x64) AppleWebKit/537.36 (KHTML, like Gecko) Chrome/67.0.3396.99 Safari/537.36",382.062,hispanic,864,150.609,1,985,48,right,Switch,3,20,3,shape,0
1536,658,A174Y3C2S7LYP6,25,714,"Eugene. Didn't encounter any bugs. Instructions were very clear, task was easy to understand. From opening your document in slack to this page, it took ~14.5 minutes. Overall, it seems to be easy to use and functioning properly. ",378XPAWRUDXN57GX3I3ENYLSYTPIAS,white,corrected,01/07/2018@11:57:40,male,"Mozilla/5.0 (Windows NT 10.0; Win64; x64) AppleWebKit/537.36 (KHTML, like Gecko) Chrome/67.0.3396.99 Safari/537.36",382.062,hispanic,864,150.609,1,652,51,left,Switch,2,21,3,color,0
1536,658,A174Y3C2S7LYP6,25,714,"Eugene. Didn't encounter any bugs. Instructions were very clear, task was easy to understand. From opening your document in slack to this page, it took ~14.5 minutes. Overall, it seems to be easy to use and functioning properly. ",378XPAWRUDXN57GX3I3ENYLSYTPIAS,white,corrected,01/07/2018@11:57:40,male,"Mozilla/5.0 (Windows NT 10.0; Win64; x64) AppleWebKit/537.36 (KHTML, like Gecko) Chrome/67.0.3396.99 Safari/537.36",382.062,hispanic,864,150.609,1,548,54,left,Repeat,3,22,3,color,0
1536,658,A174Y3C2S7LYP6,25,714,"Eugene. Didn't encounter any bugs. Instructions were very clear, task was easy to understand. From opening your document in slack to this page, it took ~14.5 minutes. Overall, it seems to be easy to use and functioning properly. ",378XPAWRUDXN57GX3I3ENYLSYTPIAS,white,corrected,01/07/2018@11:57:40,male,"Mozilla/5.0 (Windows NT 10.0; Win64; x64) AppleWebKit/537.36 (KHTML, like Gecko) Chrome/67.0.3396.99 Safari/537.36",382.062,hispanic,864,150.609,1,930,57,right,Switch,3,23,2,shape,0
1536,658,A174Y3C2S7LYP6,25,714,"Eugene. Didn't encounter any bugs. Instructions were very clear, task was easy to understand. From opening your document in slack to this page, it took ~14.5 minutes. Overall, it seems to be easy to use and functioning properly. ",378XPAWRUDXN57GX3I3ENYLSYTPIAS,white,corrected,01/07/2018@11:57:40,male,"Mozilla/5.0 (Windows NT 10.0; Win64; x64) AppleWebKit/537.36 (KHTML, like Gecko) Chrome/67.0.3396.99 Safari/537.36",382.062,hispanic,864,150.609,1,924,60,left,Switch,2,24,3,color,0
1536,658,A174Y3C2S7LYP6,25,714,"Eugene. Didn't encounter any bugs. Instructions were very clear, task was easy to understand. From opening your document in slack to this page, it took ~14.5 minutes. Overall, it seems to be easy to use and functioning properly. ",378XPAWRUDXN57GX3I3ENYLSYTPIAS,white,corrected,01/07/2018@11:57:40,male,"Mozilla/5.0 (Windows NT 10.0; Win64; x64) AppleWebKit/537.36 (KHTML, like Gecko) Chrome/67.0.3396.99 Safari/537.36",382.062,hispanic,864,150.609,1,957,60,left,Repeat,3,25,3,color,1
1536,658,A174Y3C2S7LYP6,25,714,"Eugene. Didn't encounter any bugs. Instructions were very clear, task was easy to understand. From opening your document in slack to this page, it took ~14.5 minutes. Overall, it seems to be easy to use and functioning properly. ",378XPAWRUDXN57GX3I3ENYLSYTPIAS,white,corrected,01/07/2018@11:57:40,male,"Mozilla/5.0 (Windows NT 10.0; Win64; x64) AppleWebKit/537.36 (KHTML, like Gecko) Chrome/67.0.3396.99 Safari/537.36",382.062,hispanic,864,150.609,1,953,63,left,Repeat,3,26,3,color,0
1536,658,A174Y3C2S7LYP6,25,714,"Eugene. Didn't encounter any bugs. Instructions were very clear, task was easy to understand. From opening your document in slack to this page, it took ~14.5 minutes. Overall, it seems to be easy to use and functioning properly. ",378XPAWRUDXN57GX3I3ENYLSYTPIAS,white,corrected,01/07/2018@11:57:40,male,"Mozilla/5.0 (Windows NT 10.0; Win64; x64) AppleWebKit/537.36 (KHTML, like Gecko) Chrome/67.0.3396.99 Safari/537.36",382.062,hispanic,864,150.609,1,424,66,left,Repeat,3,27,3,color,0
1536,658,A174Y3C2S7LYP6,25,714,"Eugene. Didn't encounter any bugs. Instructions were very clear, task was easy to understand. From opening your document in slack to this page, it took ~14.5 minutes. Overall, it seems to be easy to use and functioning properly. ",378XPAWRUDXN57GX3I3ENYLSYTPIAS,white,corrected,01/07/2018@11:57:40,male,"Mozilla/5.0 (Windows NT 10.0; Win64; x64) AppleWebKit/537.36 (KHTML, like Gecko) Chrome/67.0.3396.99 Safari/537.36",382.062,hispanic,864,150.609,1,307,69,left,Repeat,3,28,3,color,0
1536,658,A174Y3C2S7LYP6,25,714,"Eugene. Didn't encounter any bugs. Instructions were very clear, task was easy to understand. From opening your document in slack to this page, it took ~14.5 minutes. Overall, it seems to be easy to use and functioning properly. ",378XPAWRUDXN57GX3I3ENYLSYTPIAS,white,corrected,01/07/2018@11:57:40,male,"Mozilla/5.0 (Windows NT 10.0; Win64; x64) AppleWebKit/537.36 (KHTML, like Gecko) Chrome/67.0.3396.99 Safari/537.36",382.062,hispanic,864,150.609,1,479,72,left,Repeat,3,29,3,color,0
1536,658,A174Y3C2S7LYP6,25,714,"Eugene. Didn't encounter any bugs. Instructions were very clear, task was easy to understand. From opening your document in slack to this page, it took ~14.5 minutes. Overall, it seems to be easy to use and functioning properly. ",378XPAWRUDXN57GX3I3ENYLSYTPIAS,white,corrected,01/07/2018@11:57:40,male,"Mozilla/5.0 (Windows NT 10.0; Win64; x64) AppleWebKit/537.36 (KHTML, like Gecko) Chrome/67.0.3396.99 Safari/537.36",382.062,hispanic,864,150.609,1,664,75,right,Switch,3,30,2,shape,0
1536,658,A174Y3C2S7LYP6,25,714,"Eugene. Didn't encounter any bugs. Instructions were very clear, task was easy to understand. From opening your document in slack to this page, it took ~14.5 minutes. Overall, it seems to be easy to use and functioning properly. ",378XPAWRUDXN57GX3I3ENYLSYTPIAS,white,corrected,01/07/2018@11:57:40,male,"Mozilla/5.0 (Windows NT 10.0; Win64; x64) AppleWebKit/537.36 (KHTML, like Gecko) Chrome/67.0.3396.99 Safari/537.36",382.062,hispanic,864,150.609,1,798,78,left,Switch,2,31,3,color,0
1536,658,A174Y3C2S7LYP6,25,714,"Eugene. Didn't encounter any bugs. Instructions were very clear, task was easy to understand. From opening your document in slack to this page, it took ~14.5 minutes. Overall, it seems to be easy to use and functioning properly. ",378XPAWRUDXN57GX3I3ENYLSYTPIAS,white,corrected,01/07/2018@11:57:40,male,"Mozilla/5.0 (Windows NT 10.0; Win64; x64) AppleWebKit/537.36 (KHTML, like Gecko) Chrome/67.0.3396.99 Safari/537.36",382.062,hispanic,864,150.609,1,583,81,left,Repeat,3,32,3,color,0
1536,658,A174Y3C2S7LYP6,25,714,"Eugene. Didn't encounter any bugs. Instructions were very clear, task was easy to understand. From opening your document in slack to this page, it took ~14.5 minutes. Overall, it seems to be easy to use and functioning properly. ",378XPAWRUDXN57GX3I3ENYLSYTPIAS,white,corrected,01/07/2018@11:57:40,male,"Mozilla/5.0 (Windows NT 10.0; Win64; x64) AppleWebKit/537.36 (KHTML, like Gecko) Chrome/67.0.3396.99 Safari/537.36",382.062,hispanic,864,150.609,1,897,81,right,Switch,3,33,2,shape,1
1536,658,A174Y3C2S7LYP6,25,714,"Eugene. Didn't encounter any bugs. Instructions were very clear, task was easy to understand. From opening your document in slack to this page, it took ~14.5 minutes. Overall, it seems to be easy to use and functioning properly. ",378XPAWRUDXN57GX3I3ENYLSYTPIAS,white,corrected,01/07/2018@11:57:40,male,"Mozilla/5.0 (Windows NT 10.0; Win64; x64) AppleWebKit/537.36 (KHTML, like Gecko) Chrome/67.0.3396.99 Safari/537.36",382.062,hispanic,864,150.609,1,1284,81,left,Switch,2,34,2,color,1
1536,658,A174Y3C2S7LYP6,25,714,"Eugene. Didn't encounter any bugs. Instructions were very clear, task was easy to understand. From opening your document in slack to this page, it took ~14.5 minutes. Overall, it seems to be easy to use and functioning properly. ",378XPAWRUDXN57GX3I3ENYLSYTPIAS,white,corrected,01/07/2018@11:57:40,male,"Mozilla/5.0 (Windows NT 10.0; Win64; x64) AppleWebKit/537.36 (KHTML, like Gecko) Chrome/67.0.3396.99 Safari/537.36",382.062,hispanic,864,150.609,1,2132,84,right,Switch,3,35,2,shape,0
1536,658,A174Y3C2S7LYP6,25,714,"Eugene. Didn't encounter any bugs. Instructions were very clear, task was easy to understand. From opening your document in slack to this page, it took ~14.5 minutes. Overall, it seems to be easy to use and functioning properly. ",378XPAWRUDXN57GX3I3ENYLSYTPIAS,white,corrected,01/07/2018@11:57:40,male,"Mozilla/5.0 (Windows NT 10.0; Win64; x64) AppleWebKit/537.36 (KHTML, like Gecko) Chrome/67.0.3396.99 Safari/537.36",382.062,hispanic,864,150.609,1,1146,87,left,Switch,2,36,3,color,0
1536,658,A174Y3C2S7LYP6,25,714,"Eugene. Didn't encounter any bugs. Instructions were very clear, task was easy to understand. From opening your document in slack to this page, it took ~14.5 minutes. Overall, it seems to be easy to use and functioning properly. ",378XPAWRUDXN57GX3I3ENYLSYTPIAS,white,corrected,01/07/2018@11:57:40,male,"Mozilla/5.0 (Windows NT 10.0; Win64; x64) AppleWebKit/537.36 (KHTML, like Gecko) Chrome/67.0.3396.99 Safari/537.36",382.062,hispanic,864,150.609,1,510,87,left,Repeat,2,37,3,color,1
1536,658,A174Y3C2S7LYP6,25,714,"Eugene. Didn't encounter any bugs. Instructions were very clear, task was easy to understand. From opening your document in slack to this page, it took ~14.5 minutes. Overall, it seems to be easy to use and functioning properly. ",378XPAWRUDXN57GX3I3ENYLSYTPIAS,white,corrected,01/07/2018@11:57:40,male,"Mozilla/5.0 (Windows NT 10.0; Win64; x64) AppleWebKit/537.36 (KHTML, like Gecko) Chrome/67.0.3396.99 Safari/537.36",382.062,hispanic,864,150.609,1,1660,90,right,Switch,3,38,2,shape,0
1536,658,A174Y3C2S7LYP6,25,714,"Eugene. Didn't encounter any bugs. Instructions were very clear, task was easy to understand. From opening your document in slack to this page, it took ~14.5 minutes. Overall, it seems to be easy to use and functioning properly. ",378XPAWRUDXN57GX3I3ENYLSYTPIAS,white,corrected,01/07/2018@11:57:40,male,"Mozilla/5.0 (Windows NT 10.0; Win64; x64) AppleWebKit/537.36 (KHTML, like Gecko) Chrome/67.0.3396.99 Safari/537.36",382.062,hispanic,864,150.609,1,1537,92,left,Switch,2,39,2,color,0
1536,658,A174Y3C2S7LYP6,25,714,"Eugene. Didn't encounter any bugs. Instructions were very clear, task was easy to understand. From opening your document in slack to this page, it took ~14.5 minutes. Overall, it seems to be easy to use and functioning properly. ",378XPAWRUDXN57GX3I3ENYLSYTPIAS,white,corrected,01/07/2018@11:57:40,male,"Mozilla/5.0 (Windows NT 10.0; Win64; x64) AppleWebKit/537.36 (KHTML, like Gecko) Chrome/67.0.3396.99 Safari/537.36",382.062,hispanic,864,150.609,1,896,95,right,Switch,3,40,1,shape,0
1536,658,A174Y3C2S7LYP6,25,714,"Eugene. Didn't encounter any bugs. Instructions were very clear, task was easy to understand. From opening your document in slack to this page, it took ~14.5 minutes. Overall, it seems to be easy to use and functioning properly. ",378XPAWRUDXN57GX3I3ENYLSYTPIAS,white,corrected,01/07/2018@11:57:40,male,"Mozilla/5.0 (Windows NT 10.0; Win64; x64) AppleWebKit/537.36 (KHTML, like Gecko) Chrome/67.0.3396.99 Safari/537.36",382.062,hispanic,864,150.609,1,1015,97,right,Repeat,2,41,1,shape,0
1536,658,A174Y3C2S7LYP6,25,714,"Eugene. Didn't encounter any bugs. Instructions were very clear, task was easy to understand. From opening your document in slack to this page, it took ~14.5 minutes. Overall, it seems to be easy to use and functioning properly. ",378XPAWRUDXN57GX3I3ENYLSYTPIAS,white,corrected,01/07/2018@11:57:40,male,"Mozilla/5.0 (Windows NT 10.0; Win64; x64) AppleWebKit/537.36 (KHTML, like Gecko) Chrome/67.0.3396.99 Safari/537.36",382.062,hispanic,864,150.609,1,462,99,right,Repeat,2,42,1,shape,0
1536,658,A174Y3C2S7LYP6,25,714,"Eugene. Didn't encounter any bugs. Instructions were very clear, task was easy to understand. From opening your document in slack to this page, it took ~14.5 minutes. Overall, it seems to be easy to use and functioning properly. ",378XPAWRUDXN57GX3I3ENYLSYTPIAS,white,corrected,01/07/2018@11:57:40,male,"Mozilla/5.0 (Windows NT 10.0; Win64; x64) AppleWebKit/537.36 (KHTML, like Gecko) Chrome/67.0.3396.99 Safari/537.36",382.062,hispanic,864,150.609,1,1050,101,left,Switch,1,43,2,color,0
1536,658,A174Y3C2S7LYP6,25,714,"Eugene. Didn't encounter any bugs. Instructions were very clear, task was easy to understand. From opening your document in slack to this page, it took ~14.5 minutes. Overall, it seems to be easy to use and functioning properly. ",378XPAWRUDXN57GX3I3ENYLSYTPIAS,white,corrected,01/07/2018@11:57:40,male,"Mozilla/5.0 (Windows NT 10.0; Win64; x64) AppleWebKit/537.36 (KHTML, like Gecko) Chrome/67.0.3396.99 Safari/537.36",382.062,hispanic,864,150.609,1,2177,103,left,Repeat,2,44,2,color,0
1536,658,A174Y3C2S7LYP6,25,714,"Eugene. Didn't encounter any bugs. Instructions were very clear, task was easy to understand. From opening your document in slack to this page, it took ~14.5 minutes. Overall, it seems to be easy to use and functioning properly. ",378XPAWRUDXN57GX3I3ENYLSYTPIAS,white,corrected,01/07/2018@11:57:40,male,"Mozilla/5.0 (Windows NT 10.0; Win64; x64) AppleWebKit/537.36 (KHTML, like Gecko) Chrome/67.0.3396.99 Safari/537.36",382.062,hispanic,864,150.609,1,1407,106,right,Switch,3,45,1,shape,0
1536,658,A174Y3C2S7LYP6,25,714,"Eugene. Didn't encounter any bugs. Instructions were very clear, task was easy to understand. From opening your document in slack to this page, it took ~14.5 minutes. Overall, it seems to be easy to use and functioning properly. ",378XPAWRUDXN57GX3I3ENYLSYTPIAS,white,corrected,01/07/2018@11:57:40,male,"Mozilla/5.0 (Windows NT 10.0; Win64; x64) AppleWebKit/537.36 (KHTML, like Gecko) Chrome/67.0.3396.99 Safari/537.36",382.062,hispanic,864,150.609,1,881,106,right,Repeat,2,46,2,shape,1
1536,658,A174Y3C2S7LYP6,25,714,"Eugene. Didn't encounter any bugs. Instructions were very clear, task was easy to understand. From opening your document in slack to this page, it took ~14.5 minutes. Overall, it seems to be easy to use and functioning properly. ",378XPAWRUDXN57GX3I3ENYLSYTPIAS,white,corrected,01/07/2018@11:57:40,male,"Mozilla/5.0 (Windows NT 10.0; Win64; x64) AppleWebKit/537.36 (KHTML, like Gecko) Chrome/67.0.3396.99 Safari/537.36",382.062,hispanic,864,150.609,1,603,108,right,Repeat,2,47,2,shape,0
1536,658,A174Y3C2S7LYP6,25,714,"Eugene. Didn't encounter any bugs. Instructions were very clear, task was easy to understand. From opening your document in slack to this page, it took ~14.5 minutes. Overall, it seems to be easy to use and functioning properly. ",378XPAWRUDXN57GX3I3ENYLSYTPIAS,white,corrected,01/07/2018@11:57:40,male,"Mozilla/5.0 (Windows NT 10.0; Win64; x64) AppleWebKit/537.36 (KHTML, like Gecko) Chrome/67.0.3396.99 Safari/537.36",382.062,hispanic,864,150.609,1,669,111,left,Switch,2,48,3,color,0
1536,658,A174Y3C2S7LYP6,25,714,"Eugene. Didn't encounter any bugs. Instructions were very clear, task was easy to understand. From opening your document in slack to this page, it took ~14.5 minutes. Overall, it seems to be easy to use and functioning properly. ",378XPAWRUDXN57GX3I3ENYLSYTPIAS,white,corrected,01/07/2018@11:57:40,male,"Mozilla/5.0 (Windows NT 10.0; Win64; x64) AppleWebKit/537.36 (KHTML, like Gecko) Chrome/67.0.3396.99 Safari/537.36",382.062,hispanic,864,150.609,1,781,114,left,Repeat,3,49,3,color,0
1536,658,A174Y3C2S7LYP6,25,714,"Eugene. Didn't encounter any bugs. Instructions were very clear, task was easy to understand. From opening your document in slack to this page, it took ~14.5 minutes. Overall, it seems to be easy to use and functioning properly. ",378XPAWRUDXN57GX3I3ENYLSYTPIAS,white,corrected,01/07/2018@11:57:40,male,"Mozilla/5.0 (Windows NT 10.0; Win64; x64) AppleWebKit/537.36 (KHTML, like Gecko) Chrome/67.0.3396.99 Safari/537.36",382.062,hispanic,864,150.609,1,639,114,left,Repeat,3,50,3,color,1
1536,658,A174Y3C2S7LYP6,25,714,"Eugene. Didn't encounter any bugs. Instructions were very clear, task was easy to understand. From opening your document in slack to this page, it took ~14.5 minutes. Overall, it seems to be easy to use and functioning properly. ",378XPAWRUDXN57GX3I3ENYLSYTPIAS,white,corrected,01/07/2018@11:57:40,male,"Mozilla/5.0 (Windows NT 10.0; Win64; x64) AppleWebKit/537.36 (KHTML, like Gecko) Chrome/67.0.3396.99 Safari/537.36",382.062,hispanic,864,150.609,1,1376,117,left,Repeat,3,51,3,color,0
1536,658,A174Y3C2S7LYP6,25,714,"Eugene. Didn't encounter any bugs. Instructions were very clear, task was easy to understand. From opening your document in slack to this page, it took ~14.5 minutes. Overall, it seems to be easy to use and functioning properly. ",378XPAWRUDXN57GX3I3ENYLSYTPIAS,white,corrected,01/07/2018@11:57:40,male,"Mozilla/5.0 (Windows NT 10.0; Win64; x64) AppleWebKit/537.36 (KHTML, like Gecko) Chrome/67.0.3396.99 Safari/537.36",382.062,hispanic,864,150.609,1,2306,120,right,Switch,3,52,2,shape,0
1536,658,A174Y3C2S7LYP6,25,714,"Eugene. Didn't encounter any bugs. Instructions were very clear, task was easy to understand. From opening your document in slack to this page, it took ~14.5 minutes. Overall, it seems to be easy to use and functioning properly. ",378XPAWRUDXN57GX3I3ENYLSYTPIAS,white,corrected,01/07/2018@11:57:40,male,"Mozilla/5.0 (Windows NT 10.0; Win64; x64) AppleWebKit/537.36 (KHTML, like Gecko) Chrome/67.0.3396.99 Safari/537.36",382.062,hispanic,864,150.609,1,920,122,right,Repeat,2,53,2,shape,0
1536,658,A174Y3C2S7LYP6,25,714,"Eugene. Didn't encounter any bugs. Instructions were very clear, task was easy to understand. From opening your document in slack to this page, it took ~14.5 minutes. Overall, it seems to be easy to use and functioning properly. ",378XPAWRUDXN57GX3I3ENYLSYTPIAS,white,corrected,01/07/2018@11:57:40,male,"Mozilla/5.0 (Windows NT 10.0; Win64; x64) AppleWebKit/537.36 (KHTML, like Gecko) Chrome/67.0.3396.99 Safari/537.36",382.062,hispanic,864,150.609,1,380,124,right,Repeat,2,54,2,shape,0
1536,658,A174Y3C2S7LYP6,25,714,"Eugene. Didn't encounter any bugs. Instructions were very clear, task was easy to understand. From opening your document in slack to this page, it took ~14.5 minutes. Overall, it seems to be easy to use and functioning properly. ",378XPAWRUDXN57GX3I3ENYLSYTPIAS,white,corrected,01/07/2018@11:57:40,male,"Mozilla/5.0 (Windows NT 10.0; Win64; x64) AppleWebKit/537.36 (KHTML, like Gecko) Chrome/67.0.3396.99 Safari/537.36",382.062,hispanic,864,150.609,1,772,127,left,Switch,1,55,3,color,0
1536,658,A174Y3C2S7LYP6,25,714,"Eugene. Didn't encounter any bugs. Instructions were very clear, task was easy to understand. From opening your document in slack to this page, it took ~14.5 minutes. Overall, it seems to be easy to use and functioning properly. ",378XPAWRUDXN57GX3I3ENYLSYTPIAS,white,corrected,01/07/2018@11:57:40,male,"Mozilla/5.0 (Windows NT 10.0; Win64; x64) AppleWebKit/537.36 (KHTML, like Gecko) Chrome/67.0.3396.99 Safari/537.36",382.062,hispanic,864,150.609,1,658,130,left,Repeat,1,56,3,color,0
1536,658,A174Y3C2S7LYP6,25,714,"Eugene. Didn't encounter any bugs. Instructions were very clear, task was easy to understand. From opening your document in slack to this page, it took ~14.5 minutes. Overall, it seems to be easy to use and functioning properly. ",378XPAWRUDXN57GX3I3ENYLSYTPIAS,white,corrected,01/07/2018@11:57:40,male,"Mozilla/5.0 (Windows NT 10.0; Win64; x64) AppleWebKit/537.36 (KHTML, like Gecko) Chrome/67.0.3396.99 Safari/537.36",382.062,hispanic,864,150.609,1,840,133,left,Repeat,2,57,3,color,0
1536,658,A174Y3C2S7LYP6,25,714,"Eugene. Didn't encounter any bugs. Instructions were very clear, task was easy to understand. From opening your document in slack to this page, it took ~14.5 minutes. Overall, it seems to be easy to use and functioning properly. ",378XPAWRUDXN57GX3I3ENYLSYTPIAS,white,corrected,01/07/2018@11:57:40,male,"Mozilla/5.0 (Windows NT 10.0; Win64; x64) AppleWebKit/537.36 (KHTML, like Gecko) Chrome/67.0.3396.99 Safari/537.36",382.062,hispanic,864,150.609,1,568,136,left,Repeat,2,58,3,color,0
1536,658,A174Y3C2S7LYP6,25,714,"Eugene. Didn't encounter any bugs. Instructions were very clear, task was easy to understand. From opening your document in slack to this page, it took ~14.5 minutes. Overall, it seems to be easy to use and functioning properly. ",378XPAWRUDXN57GX3I3ENYLSYTPIAS,white,corrected,01/07/2018@11:57:40,male,"Mozilla/5.0 (Windows NT 10.0; Win64; x64) AppleWebKit/537.36 (KHTML, like Gecko) Chrome/67.0.3396.99 Safari/537.36",382.062,hispanic,864,150.609,1,587,139,left,Repeat,3,59,3,color,0
1536,658,A174Y3C2S7LYP6,25,714,"Eugene. Didn't encounter any bugs. Instructions were very clear, task was easy to understand. From opening your document in slack to this page, it took ~14.5 minutes. Overall, it seems to be easy to use and functioning properly. ",378XPAWRUDXN57GX3I3ENYLSYTPIAS,white,corrected,01/07/2018@11:57:40,male,"Mozilla/5.0 (Windows NT 10.0; Win64; x64) AppleWebKit/537.36 (KHTML, like Gecko) Chrome/67.0.3396.99 Safari/537.36",382.062,hispanic,864,150.609,1,945,142,right,Switch,3,60,2,shape,0
1536,658,A174Y3C2S7LYP6,25,714,"Eugene. Didn't encounter any bugs. Instructions were very clear, task was easy to understand. From opening your document in slack to this page, it took ~14.5 minutes. Overall, it seems to be easy to use and functioning properly. ",378XPAWRUDXN57GX3I3ENYLSYTPIAS,white,corrected,01/07/2018@11:57:40,male,"Mozilla/5.0 (Windows NT 10.0; Win64; x64) AppleWebKit/537.36 (KHTML, like Gecko) Chrome/67.0.3396.99 Safari/537.36",382.062,hispanic,864,150.609,1,400,145,right,Repeat,3,61,2,shape,0
1536,658,A174Y3C2S7LYP6,25,714,"Eugene. Didn't encounter any bugs. Instructions were very clear, task was easy to understand. From opening your document in slack to this page, it took ~14.5 minutes. Overall, it seems to be easy to use and functioning properly. ",378XPAWRUDXN57GX3I3ENYLSYTPIAS,white,corrected,01/07/2018@11:57:40,male,"Mozilla/5.0 (Windows NT 10.0; Win64; x64) AppleWebKit/537.36 (KHTML, like Gecko) Chrome/67.0.3396.99 Safari/537.36",382.062,hispanic,864,150.609,1,758,148,right,Repeat,3,62,3,shape,0
1536,658,A174Y3C2S7LYP6,25,714,"Eugene. Didn't encounter any bugs. Instructions were very clear, task was easy to understand. From opening your document in slack to this page, it took ~14.5 minutes. Overall, it seems to be easy to use and functioning properly. ",378XPAWRUDXN57GX3I3ENYLSYTPIAS,white,corrected,01/07/2018@11:57:40,male,"Mozilla/5.0 (Windows NT 10.0; Win64; x64) AppleWebKit/537.36 (KHTML, like Gecko) Chrome/67.0.3396.99 Safari/537.36",382.062,hispanic,864,150.609,1,645,151,right,Repeat,3,63,3,shape,0
1536,658,A174Y3C2S7LYP6,25,714,"Eugene. Didn't encounter any bugs. Instructions were very clear, task was easy to understand. From opening your document in slack to this page, it took ~14.5 minutes. Overall, it seems to be easy to use and functioning properly. ",378XPAWRUDXN57GX3I3ENYLSYTPIAS,white,corrected,01/07/2018@11:57:40,male,"Mozilla/5.0 (Windows NT 10.0; Win64; x64) AppleWebKit/537.36 (KHTML, like Gecko) Chrome/67.0.3396.99 Safari/537.36",382.062,hispanic,864,150.609,1,1218,154,left,Switch,3,64,3,color,0
1536,658,A174Y3C2S7LYP6,25,714,"Eugene. Didn't encounter any bugs. Instructions were very clear, task was easy to understand. From opening your document in slack to this page, it took ~14.5 minutes. Overall, it seems to be easy to use and functioning properly. ",378XPAWRUDXN57GX3I3ENYLSYTPIAS,white,corrected,01/07/2018@11:57:40,male,"Mozilla/5.0 (Windows NT 10.0; Win64; x64) AppleWebKit/537.36 (KHTML, like Gecko) Chrome/67.0.3396.99 Safari/537.36",382.062,hispanic,864,150.609,1,1898,157,left,Repeat,3,65,3,color,0
1536,658,A174Y3C2S7LYP6,25,714,"Eugene. Didn't encounter any bugs. Instructions were very clear, task was easy to understand. From opening your document in slack to this page, it took ~14.5 minutes. Overall, it seems to be easy to use and functioning properly. ",378XPAWRUDXN57GX3I3ENYLSYTPIAS,white,corrected,01/07/2018@11:57:40,male,"Mozilla/5.0 (Windows NT 10.0; Win64; x64) AppleWebKit/537.36 (KHTML, like Gecko) Chrome/67.0.3396.99 Safari/537.36",382.062,hispanic,864,150.609,1,1087,160,right,Switch,3,66,2,shape,0
1536,658,A174Y3C2S7LYP6,25,714,"Eugene. Didn't encounter any bugs. Instructions were very clear, task was easy to understand. From opening your document in slack to this page, it took ~14.5 minutes. Overall, it seems to be easy to use and functioning properly. ",378XPAWRUDXN57GX3I3ENYLSYTPIAS,white,corrected,01/07/2018@11:57:40,male,"Mozilla/5.0 (Windows NT 10.0; Win64; x64) AppleWebKit/537.36 (KHTML, like Gecko) Chrome/67.0.3396.99 Safari/537.36",382.062,hispanic,864,150.609,1,742,163,right,Repeat,3,67,2,shape,0
1536,658,A174Y3C2S7LYP6,25,714,"Eugene. Didn't encounter any bugs. Instructions were very clear, task was easy to understand. From opening your document in slack to this page, it took ~14.5 minutes. Overall, it seems to be easy to use and functioning properly. ",378XPAWRUDXN57GX3I3ENYLSYTPIAS,white,corrected,01/07/2018@11:57:40,male,"Mozilla/5.0 (Windows NT 10.0; Win64; x64) AppleWebKit/537.36 (KHTML, like Gecko) Chrome/67.0.3396.99 Safari/537.36",382.062,hispanic,864,150.609,1,525,166,right,Repeat,3,68,3,shape,0
1536,658,A174Y3C2S7LYP6,25,714,"Eugene. Didn't encounter any bugs. Instructions were very clear, task was easy to understand. From opening your document in slack to this page, it took ~14.5 minutes. Overall, it seems to be easy to use and functioning properly. ",378XPAWRUDXN57GX3I3ENYLSYTPIAS,white,corrected,01/07/2018@11:57:40,male,"Mozilla/5.0 (Windows NT 10.0; Win64; x64) AppleWebKit/537.36 (KHTML, like Gecko) Chrome/67.0.3396.99 Safari/537.36",382.062,hispanic,864,150.609,1,542,169,left,Switch,3,69,3,color,0
1536,658,A174Y3C2S7LYP6,25,714,"Eugene. Didn't encounter any bugs. Instructions were very clear, task was easy to understand. From opening your document in slack to this page, it took ~14.5 minutes. Overall, it seems to be easy to use and functioning properly. ",378XPAWRUDXN57GX3I3ENYLSYTPIAS,white,corrected,01/07/2018@11:57:40,male,"Mozilla/5.0 (Windows NT 10.0; Win64; x64) AppleWebKit/537.36 (KHTML, like Gecko) Chrome/67.0.3396.99 Safari/537.36",382.062,hispanic,864,150.609,1,569,172,right,Switch,3,70,3,shape,0
1536,658,A174Y3C2S7LYP6,25,714,"Eugene. Didn't encounter any bugs. Instructions were very clear, task was easy to understand. From opening your document in slack to this page, it took ~14.5 minutes. Overall, it seems to be easy to use and functioning properly. ",378XPAWRUDXN57GX3I3ENYLSYTPIAS,white,corrected,01/07/2018@11:57:40,male,"Mozilla/5.0 (Windows NT 10.0; Win64; x64) AppleWebKit/537.36 (KHTML, like Gecko) Chrome/67.0.3396.99 Safari/537.36",382.062,hispanic,864,150.609,1,850,175,left,Switch,3,71,3,color,0
1536,658,A174Y3C2S7LYP6,25,714,"Eugene. Didn't encounter any bugs. Instructions were very clear, task was easy to understand. From opening your document in slack to this page, it took ~14.5 minutes. Overall, it seems to be easy to use and functioning properly. ",378XPAWRUDXN57GX3I3ENYLSYTPIAS,white,corrected,01/07/2018@11:57:40,male,"Mozilla/5.0 (Windows NT 10.0; Win64; x64) AppleWebKit/537.36 (KHTML, like Gecko) Chrome/67.0.3396.99 Safari/537.36",382.062,hispanic,864,150.609,1,508,178,left,Repeat,3,72,3,color,0
1536,658,A174Y3C2S7LYP6,25,714,"Eugene. Didn't encounter any bugs. Instructions were very clear, task was easy to understand. From opening your document in slack to this page, it took ~14.5 minutes. Overall, it seems to be easy to use and functioning properly. ",378XPAWRUDXN57GX3I3ENYLSYTPIAS,white,corrected,01/07/2018@11:57:40,male,"Mozilla/5.0 (Windows NT 10.0; Win64; x64) AppleWebKit/537.36 (KHTML, like Gecko) Chrome/67.0.3396.99 Safari/537.36",382.062,hispanic,864,150.609,1,512,181,right,Switch,3,73,2,shape,0
1536,658,A174Y3C2S7LYP6,25,714,"Eugene. Didn't encounter any bugs. Instructions were very clear, task was easy to understand. From opening your document in slack to this page, it took ~14.5 minutes. Overall, it seems to be easy to use and functioning properly. ",378XPAWRUDXN57GX3I3ENYLSYTPIAS,white,corrected,01/07/2018@11:57:40,male,"Mozilla/5.0 (Windows NT 10.0; Win64; x64) AppleWebKit/537.36 (KHTML, like Gecko) Chrome/67.0.3396.99 Safari/537.36",382.062,hispanic,864,150.609,1,525,184,left,Switch,2,74,3,color,0
1536,658,A174Y3C2S7LYP6,25,714,"Eugene. Didn't encounter any bugs. Instructions were very clear, task was easy to understand. From opening your document in slack to this page, it took ~14.5 minutes. Overall, it seems to be easy to use and functioning properly. ",378XPAWRUDXN57GX3I3ENYLSYTPIAS,white,corrected,01/07/2018@11:57:40,male,"Mozilla/5.0 (Windows NT 10.0; Win64; x64) AppleWebKit/537.36 (KHTML, like Gecko) Chrome/67.0.3396.99 Safari/537.36",382.062,hispanic,864,150.609,1,637,184,left,Repeat,2,75,3,color,1
1536,658,A174Y3C2S7LYP6,25,714,"Eugene. Didn't encounter any bugs. Instructions were very clear, task was easy to understand. From opening your document in slack to this page, it took ~14.5 minutes. Overall, it seems to be easy to use and functioning properly. ",378XPAWRUDXN57GX3I3ENYLSYTPIAS,white,corrected,01/07/2018@11:57:40,male,"Mozilla/5.0 (Windows NT 10.0; Win64; x64) AppleWebKit/537.36 (KHTML, like Gecko) Chrome/67.0.3396.99 Safari/537.36",382.062,hispanic,864,150.609,1,948,187,left,Repeat,3,76,3,color,0
1536,658,A174Y3C2S7LYP6,25,714,"Eugene. Didn't encounter any bugs. Instructions were very clear, task was easy to understand. From opening your document in slack to this page, it took ~14.5 minutes. Overall, it seems to be easy to use and functioning properly. ",378XPAWRUDXN57GX3I3ENYLSYTPIAS,white,corrected,01/07/2018@11:57:40,male,"Mozilla/5.0 (Windows NT 10.0; Win64; x64) AppleWebKit/537.36 (KHTML, like Gecko) Chrome/67.0.3396.99 Safari/537.36",382.062,hispanic,864,150.609,1,545,190,left,Repeat,3,77,3,color,0
1536,658,A174Y3C2S7LYP6,25,714,"Eugene. Didn't encounter any bugs. Instructions were very clear, task was easy to understand. From opening your document in slack to this page, it took ~14.5 minutes. Overall, it seems to be easy to use and functioning properly. ",378XPAWRUDXN57GX3I3ENYLSYTPIAS,white,corrected,01/07/2018@11:57:40,male,"Mozilla/5.0 (Windows NT 10.0; Win64; x64) AppleWebKit/537.36 (KHTML, like Gecko) Chrome/67.0.3396.99 Safari/537.36",382.062,hispanic,864,150.609,1,662,193,right,Switch,3,78,2,shape,0
1536,658,A174Y3C2S7LYP6,25,714,"Eugene. Didn't encounter any bugs. Instructions were very clear, task was easy to understand. From opening your document in slack to this page, it took ~14.5 minutes. Overall, it seems to be easy to use and functioning properly. ",378XPAWRUDXN57GX3I3ENYLSYTPIAS,white,corrected,01/07/2018@11:57:40,male,"Mozilla/5.0 (Windows NT 10.0; Win64; x64) AppleWebKit/537.36 (KHTML, like Gecko) Chrome/67.0.3396.99 Safari/537.36",382.062,hispanic,864,150.609,1,966,195,left,Switch,2,79,2,color,0
1536,658,A174Y3C2S7LYP6,25,714,"Eugene. Didn't encounter any bugs. Instructions were very clear, task was easy to understand. From opening your document in slack to this page, it took ~14.5 minutes. Overall, it seems to be easy to use and functioning properly. ",378XPAWRUDXN57GX3I3ENYLSYTPIAS,white,corrected,01/07/2018@11:57:40,male,"Mozilla/5.0 (Windows NT 10.0; Win64; x64) AppleWebKit/537.36 (KHTML, like Gecko) Chrome/67.0.3396.99 Safari/537.36",382.062,hispanic,864,150.609,1,652,197,right,Switch,2,80,1,shape,0
1536,658,A174Y3C2S7LYP6,25,714,"Eugene. Didn't encounter any bugs. Instructions were very clear, task was easy to understand. From opening your document in slack to this page, it took ~14.5 minutes. Overall, it seems to be easy to use and functioning properly. ",378XPAWRUDXN57GX3I3ENYLSYTPIAS,white,corrected,01/07/2018@11:57:40,male,"Mozilla/5.0 (Windows NT 10.0; Win64; x64) AppleWebKit/537.36 (KHTML, like Gecko) Chrome/67.0.3396.99 Safari/537.36",382.062,hispanic,864,150.609,1,849,199,left,Switch,1,81,2,color,0
1536,658,A174Y3C2S7LYP6,25,714,"Eugene. Didn't encounter any bugs. Instructions were very clear, task was easy to understand. From opening your document in slack to this page, it took ~14.5 minutes. Overall, it seems to be easy to use and functioning properly. ",378XPAWRUDXN57GX3I3ENYLSYTPIAS,white,corrected,01/07/2018@11:57:40,male,"Mozilla/5.0 (Windows NT 10.0; Win64; x64) AppleWebKit/537.36 (KHTML, like Gecko) Chrome/67.0.3396.99 Safari/537.36",382.062,hispanic,864,150.609,1,675,201,left,Repeat,2,82,2,color,0
1536,658,A174Y3C2S7LYP6,25,714,"Eugene. Didn't encounter any bugs. Instructions were very clear, task was easy to understand. From opening your document in slack to this page, it took ~14.5 minutes. Overall, it seems to be easy to use and functioning properly. ",378XPAWRUDXN57GX3I3ENYLSYTPIAS,white,corrected,01/07/2018@11:57:40,male,"Mozilla/5.0 (Windows NT 10.0; Win64; x64) AppleWebKit/537.36 (KHTML, like Gecko) Chrome/67.0.3396.99 Safari/537.36",382.062,hispanic,864,150.609,1,840,203,left,Repeat,3,83,2,color,0
1536,658,A174Y3C2S7LYP6,25,714,"Eugene. Didn't encounter any bugs. Instructions were very clear, task was easy to understand. From opening your document in slack to this page, it took ~14.5 minutes. Overall, it seems to be easy to use and functioning properly. ",378XPAWRUDXN57GX3I3ENYLSYTPIAS,white,corrected,01/07/2018@11:57:40,male,"Mozilla/5.0 (Windows NT 10.0; Win64; x64) AppleWebKit/537.36 (KHTML, like Gecko) Chrome/67.0.3396.99 Safari/537.36",382.062,hispanic,864,150.609,1,649,206,right,Switch,3,84,1,shape,0
1536,658,A174Y3C2S7LYP6,25,714,"Eugene. Didn't encounter any bugs. Instructions were very clear, task was easy to understand. From opening your document in slack to this page, it took ~14.5 minutes. Overall, it seems to be easy to use and functioning properly. ",378XPAWRUDXN57GX3I3ENYLSYTPIAS,white,corrected,01/07/2018@11:57:40,male,"Mozilla/5.0 (Windows NT 10.0; Win64; x64) AppleWebKit/537.36 (KHTML, like Gecko) Chrome/67.0.3396.99 Safari/537.36",382.062,hispanic,864,150.609,1,844,209,right,Repeat,3,85,1,shape,0
1536,658,A174Y3C2S7LYP6,25,714,"Eugene. Didn't encounter any bugs. Instructions were very clear, task was easy to understand. From opening your document in slack to this page, it took ~14.5 minutes. Overall, it seems to be easy to use and functioning properly. ",378XPAWRUDXN57GX3I3ENYLSYTPIAS,white,corrected,01/07/2018@11:57:40,male,"Mozilla/5.0 (Windows NT 10.0; Win64; x64) AppleWebKit/537.36 (KHTML, like Gecko) Chrome/67.0.3396.99 Safari/537.36",382.062,hispanic,864,150.609,1,431,212,right,Repeat,3,86,2,shape,0
1536,658,A174Y3C2S7LYP6,25,714,"Eugene. Didn't encounter any bugs. Instructions were very clear, task was easy to understand. From opening your document in slack to this page, it took ~14.5 minutes. Overall, it seems to be easy to use and functioning properly. ",378XPAWRUDXN57GX3I3ENYLSYTPIAS,white,corrected,01/07/2018@11:57:40,male,"Mozilla/5.0 (Windows NT 10.0; Win64; x64) AppleWebKit/537.36 (KHTML, like Gecko) Chrome/67.0.3396.99 Safari/537.36",382.062,hispanic,864,150.609,1,517,215,right,Repeat,3,87,3,shape,0
1536,658,A174Y3C2S7LYP6,25,714,"Eugene. Didn't encounter any bugs. Instructions were very clear, task was easy to understand. From opening your document in slack to this page, it took ~14.5 minutes. Overall, it seems to be easy to use and functioning properly. ",378XPAWRUDXN57GX3I3ENYLSYTPIAS,white,corrected,01/07/2018@11:57:40,male,"Mozilla/5.0 (Windows NT 10.0; Win64; x64) AppleWebKit/537.36 (KHTML, like Gecko) Chrome/67.0.3396.99 Safari/537.36",382.062,hispanic,864,150.609,1,1956,218,right,Repeat,3,88,3,shape,0
1536,658,A174Y3C2S7LYP6,25,714,"Eugene. Didn't encounter any bugs. Instructions were very clear, task was easy to understand. From opening your document in slack to this page, it took ~14.5 minutes. Overall, it seems to be easy to use and functioning properly. ",378XPAWRUDXN57GX3I3ENYLSYTPIAS,white,corrected,01/07/2018@11:57:40,male,"Mozilla/5.0 (Windows NT 10.0; Win64; x64) AppleWebKit/537.36 (KHTML, like Gecko) Chrome/67.0.3396.99 Safari/537.36",382.062,hispanic,864,150.609,1,700,221,left,Switch,2,89,3,color,0
1536,658,A174Y3C2S7LYP6,25,714,"Eugene. Didn't encounter any bugs. Instructions were very clear, task was easy to understand. From opening your document in slack to this page, it took ~14.5 minutes. Overall, it seems to be easy to use and functioning properly. ",378XPAWRUDXN57GX3I3ENYLSYTPIAS,white,corrected,01/07/2018@11:57:40,male,"Mozilla/5.0 (Windows NT 10.0; Win64; x64) AppleWebKit/537.36 (KHTML, like Gecko) Chrome/67.0.3396.99 Safari/537.36",382.062,hispanic,864,150.609,1,889,224,left,Repeat,3,90,3,color,0
1536,658,A174Y3C2S7LYP6,25,714,"Eugene. Didn't encounter any bugs. Instructions were very clear, task was easy to understand. From opening your document in slack to this page, it took ~14.5 minutes. Overall, it seems to be easy to use and functioning properly. ",378XPAWRUDXN57GX3I3ENYLSYTPIAS,white,corrected,01/07/2018@11:57:40,male,"Mozilla/5.0 (Windows NT 10.0; Win64; x64) AppleWebKit/537.36 (KHTML, like Gecko) Chrome/67.0.3396.99 Safari/537.36",382.062,hispanic,864,150.609,1,821,227,left,Repeat,3,91,3,color,0
1536,658,A174Y3C2S7LYP6,25,714,"Eugene. Didn't encounter any bugs. Instructions were very clear, task was easy to understand. From opening your document in slack to this page, it took ~14.5 minutes. Overall, it seems to be easy to use and functioning properly. ",378XPAWRUDXN57GX3I3ENYLSYTPIAS,white,corrected,01/07/2018@11:57:40,male,"Mozilla/5.0 (Windows NT 10.0; Win64; x64) AppleWebKit/537.36 (KHTML, like Gecko) Chrome/67.0.3396.99 Safari/537.36",382.062,hispanic,864,150.609,1,390,230,left,Repeat,3,92,3,color,0
1536,658,A174Y3C2S7LYP6,25,714,"Eugene. Didn't encounter any bugs. Instructions were very clear, task was easy to understand. From opening your document in slack to this page, it took ~14.5 minutes. Overall, it seems to be easy to use and functioning properly. ",378XPAWRUDXN57GX3I3ENYLSYTPIAS,white,corrected,01/07/2018@11:57:40,male,"Mozilla/5.0 (Windows NT 10.0; Win64; x64) AppleWebKit/537.36 (KHTML, like Gecko) Chrome/67.0.3396.99 Safari/537.36",382.062,hispanic,864,150.609,1,1212,233,right,Switch,3,93,2,shape,0
1536,658,A174Y3C2S7LYP6,25,714,"Eugene. Didn't encounter any bugs. Instructions were very clear, task was easy to understand. From opening your document in slack to this page, it took ~14.5 minutes. Overall, it seems to be easy to use and functioning properly. ",378XPAWRUDXN57GX3I3ENYLSYTPIAS,white,corrected,01/07/2018@11:57:40,male,"Mozilla/5.0 (Windows NT 10.0; Win64; x64) AppleWebKit/537.36 (KHTML, like Gecko) Chrome/67.0.3396.99 Safari/537.36",382.062,hispanic,864,150.609,1,565,236,right,Repeat,3,94,2,shape,0
1536,658,A174Y3C2S7LYP6,25,714,"Eugene. Didn't encounter any bugs. Instructions were very clear, task was easy to understand. From opening your document in slack to this page, it took ~14.5 minutes. Overall, it seems to be easy to use and functioning properly. ",378XPAWRUDXN57GX3I3ENYLSYTPIAS,white,corrected,01/07/2018@11:57:40,male,"Mozilla/5.0 (Windows NT 10.0; Win64; x64) AppleWebKit/537.36 (KHTML, like Gecko) Chrome/67.0.3396.99 Safari/537.36",382.062,hispanic,864,150.609,1,534,239,right,Repeat,3,95,2,shape,0
1536,658,A174Y3C2S7LYP6,25,714,"Eugene. Didn't encounter any bugs. Instructions were very clear, task was easy to understand. From opening your document in slack to this page, it took ~14.5 minutes. Overall, it seems to be easy to use and functioning properly. ",378XPAWRUDXN57GX3I3ENYLSYTPIAS,white,corrected,01/07/2018@11:57:40,male,"Mozilla/5.0 (Windows NT 10.0; Win64; x64) AppleWebKit/537.36 (KHTML, like Gecko) Chrome/67.0.3396.99 Safari/537.36",382.062,hispanic,864,150.609,1,627,242,left,Switch,2,96,3,color,0
1536,658,A174Y3C2S7LYP6,25,714,"Eugene. Didn't encounter any bugs. Instructions were very clear, task was easy to understand. From opening your document in slack to this page, it took ~14.5 minutes. Overall, it seems to be easy to use and functioning properly. ",378XPAWRUDXN57GX3I3ENYLSYTPIAS,white,corrected,01/07/2018@11:57:40,male,"Mozilla/5.0 (Windows NT 10.0; Win64; x64) AppleWebKit/537.36 (KHTML, like Gecko) Chrome/67.0.3396.99 Safari/537.36",382.062,hispanic,864,150.609,1,970,242,left,Repeat,3,97,2,color,1
1536,658,A174Y3C2S7LYP6,25,714,"Eugene. Didn't encounter any bugs. Instructions were very clear, task was easy to understand. From opening your document in slack to this page, it took ~14.5 minutes. Overall, it seems to be easy to use and functioning properly. ",378XPAWRUDXN57GX3I3ENYLSYTPIAS,white,corrected,01/07/2018@11:57:40,male,"Mozilla/5.0 (Windows NT 10.0; Win64; x64) AppleWebKit/537.36 (KHTML, like Gecko) Chrome/67.0.3396.99 Safari/537.36",382.062,hispanic,864,150.609,1,718,244,left,Repeat,3,98,2,color,0
1536,658,A174Y3C2S7LYP6,25,714,"Eugene. Didn't encounter any bugs. Instructions were very clear, task was easy to understand. From opening your document in slack to this page, it took ~14.5 minutes. Overall, it seems to be easy to use and functioning properly. ",378XPAWRUDXN57GX3I3ENYLSYTPIAS,white,corrected,01/07/2018@11:57:40,male,"Mozilla/5.0 (Windows NT 10.0; Win64; x64) AppleWebKit/537.36 (KHTML, like Gecko) Chrome/67.0.3396.99 Safari/537.36",382.062,hispanic,864,150.609,1,590,247,right,Switch,3,99,2,shape,0
1536,658,A174Y3C2S7LYP6,25,714,"Eugene. Didn't encounter any bugs. Instructions were very clear, task was easy to understand. From opening your document in slack to this page, it took ~14.5 minutes. Overall, it seems to be easy to use and functioning properly. ",378XPAWRUDXN57GX3I3ENYLSYTPIAS,white,corrected,01/07/2018@11:57:40,male,"Mozilla/5.0 (Windows NT 10.0; Win64; x64) AppleWebKit/537.36 (KHTML, like Gecko) Chrome/67.0.3396.99 Safari/537.36",382.062,hispanic,864,150.609,1,960,250,left,Switch,2,100,3,color,0
1536,658,A174Y3C2S7LYP6,25,714,"Eugene. Didn't encounter any bugs. Instructions were very clear, task was easy to understand. From opening your document in slack to this page, it took ~14.5 minutes. Overall, it seems to be easy to use and functioning properly. ",378XPAWRUDXN57GX3I3ENYLSYTPIAS,white,corrected,01/07/2018@11:57:40,male,"Mozilla/5.0 (Windows NT 10.0; Win64; x64) AppleWebKit/537.36 (KHTML, like Gecko) Chrome/67.0.3396.99 Safari/537.36",382.062,hispanic,864,150.609,1,611,253,left,Repeat,3,101,3,color,0
1536,658,A174Y3C2S7LYP6,25,714,"Eugene. Didn't encounter any bugs. Instructions were very clear, task was easy to understand. From opening your document in slack to this page, it took ~14.5 minutes. Overall, it seems to be easy to use and functioning properly. ",378XPAWRUDXN57GX3I3ENYLSYTPIAS,white,corrected,01/07/2018@11:57:40,male,"Mozilla/5.0 (Windows NT 10.0; Win64; x64) AppleWebKit/537.36 (KHTML, like Gecko) Chrome/67.0.3396.99 Safari/537.36",382.062,hispanic,864,150.609,1,586,256,left,Repeat,3,102,3,color,0
1536,658,A174Y3C2S7LYP6,25,714,"Eugene. Didn't encounter any bugs. Instructions were very clear, task was easy to understand. From opening your document in slack to this page, it took ~14.5 minutes. Overall, it seems to be easy to use and functioning properly. ",378XPAWRUDXN57GX3I3ENYLSYTPIAS,white,corrected,01/07/2018@11:57:40,male,"Mozilla/5.0 (Windows NT 10.0; Win64; x64) AppleWebKit/537.36 (KHTML, like Gecko) Chrome/67.0.3396.99 Safari/537.36",382.062,hispanic,864,150.609,1,641,259,right,Switch,3,103,2,shape,0
1536,658,A174Y3C2S7LYP6,25,714,"Eugene. Didn't encounter any bugs. Instructions were very clear, task was easy to understand. From opening your document in slack to this page, it took ~14.5 minutes. Overall, it seems to be easy to use and functioning properly. ",378XPAWRUDXN57GX3I3ENYLSYTPIAS,white,corrected,01/07/2018@11:57:40,male,"Mozilla/5.0 (Windows NT 10.0; Win64; x64) AppleWebKit/537.36 (KHTML, like Gecko) Chrome/67.0.3396.99 Safari/537.36",382.062,hispanic,864,150.609,1,675,262,right,Repeat,3,104,2,shape,0
1536,658,A174Y3C2S7LYP6,25,714,"Eugene. Didn't encounter any bugs. Instructions were very clear, task was easy to understand. From opening your document in slack to this page, it took ~14.5 minutes. Overall, it seems to be easy to use and functioning properly. ",378XPAWRUDXN57GX3I3ENYLSYTPIAS,white,corrected,01/07/2018@11:57:40,male,"Mozilla/5.0 (Windows NT 10.0; Win64; x64) AppleWebKit/537.36 (KHTML, like Gecko) Chrome/67.0.3396.99 Safari/537.36",382.062,hispanic,864,150.609,1,743,265,left,Switch,2,105,3,color,0
1536,658,A174Y3C2S7LYP6,25,714,"Eugene. Didn't encounter any bugs. Instructions were very clear, task was easy to understand. From opening your document in slack to this page, it took ~14.5 minutes. Overall, it seems to be easy to use and functioning properly. ",378XPAWRUDXN57GX3I3ENYLSYTPIAS,white,corrected,01/07/2018@11:57:40,male,"Mozilla/5.0 (Windows NT 10.0; Win64; x64) AppleWebKit/537.36 (KHTML, like Gecko) Chrome/67.0.3396.99 Safari/537.36",382.062,hispanic,864,150.609,1,512,268,right,Switch,3,106,2,shape,0
1536,658,A174Y3C2S7LYP6,25,714,"Eugene. Didn't encounter any bugs. Instructions were very clear, task was easy to understand. From opening your document in slack to this page, it took ~14.5 minutes. Overall, it seems to be easy to use and functioning properly. ",378XPAWRUDXN57GX3I3ENYLSYTPIAS,white,corrected,01/07/2018@11:57:40,male,"Mozilla/5.0 (Windows NT 10.0; Win64; x64) AppleWebKit/537.36 (KHTML, like Gecko) Chrome/67.0.3396.99 Safari/537.36",382.062,hispanic,864,150.609,1,430,271,left,Switch,3,107,3,color,0
1536,658,A174Y3C2S7LYP6,25,714,"Eugene. Didn't encounter any bugs. Instructions were very clear, task was easy to understand. From opening your document in slack to this page, it took ~14.5 minutes. Overall, it seems to be easy to use and functioning properly. ",378XPAWRUDXN57GX3I3ENYLSYTPIAS,white,corrected,01/07/2018@11:57:40,male,"Mozilla/5.0 (Windows NT 10.0; Win64; x64) AppleWebKit/537.36 (KHTML, like Gecko) Chrome/67.0.3396.99 Safari/537.36",382.062,hispanic,864,150.609,1,393,274,right,Switch,3,108,3,shape,0
1536,658,A174Y3C2S7LYP6,25,714,"Eugene. Didn't encounter any bugs. Instructions were very clear, task was easy to understand. From opening your document in slack to this page, it took ~14.5 minutes. Overall, it seems to be easy to use and functioning properly. ",378XPAWRUDXN57GX3I3ENYLSYTPIAS,white,corrected,01/07/2018@11:57:40,male,"Mozilla/5.0 (Windows NT 10.0; Win64; x64) AppleWebKit/537.36 (KHTML, like Gecko) Chrome/67.0.3396.99 Safari/537.36",382.062,hispanic,864,150.609,1,673,274,left,Switch,2,109,3,color,1
1536,658,A174Y3C2S7LYP6,25,714,"Eugene. Didn't encounter any bugs. Instructions were very clear, task was easy to understand. From opening your document in slack to this page, it took ~14.5 minutes. Overall, it seems to be easy to use and functioning properly. ",378XPAWRUDXN57GX3I3ENYLSYTPIAS,white,corrected,01/07/2018@11:57:40,male,"Mozilla/5.0 (Windows NT 10.0; Win64; x64) AppleWebKit/537.36 (KHTML, like Gecko) Chrome/67.0.3396.99 Safari/537.36",382.062,hispanic,864,150.609,1,799,276,left,Repeat,2,110,2,color,0
1536,658,A174Y3C2S7LYP6,25,714,"Eugene. Didn't encounter any bugs. Instructions were very clear, task was easy to understand. From opening your document in slack to this page, it took ~14.5 minutes. Overall, it seems to be easy to use and functioning properly. ",378XPAWRUDXN57GX3I3ENYLSYTPIAS,white,corrected,01/07/2018@11:57:40,male,"Mozilla/5.0 (Windows NT 10.0; Win64; x64) AppleWebKit/537.36 (KHTML, like Gecko) Chrome/67.0.3396.99 Safari/537.36",382.062,hispanic,864,150.609,1,1018,278,left,Repeat,2,111,2,color,0
1536,658,A174Y3C2S7LYP6,25,714,"Eugene. Didn't encounter any bugs. Instructions were very clear, task was easy to understand. From opening your document in slack to this page, it took ~14.5 minutes. Overall, it seems to be easy to use and functioning properly. ",378XPAWRUDXN57GX3I3ENYLSYTPIAS,white,corrected,01/07/2018@11:57:40,male,"Mozilla/5.0 (Windows NT 10.0; Win64; x64) AppleWebKit/537.36 (KHTML, like Gecko) Chrome/67.0.3396.99 Safari/537.36",382.062,hispanic,864,150.609,1,1088,281,right,Switch,3,112,2,shape,0
1536,658,A174Y3C2S7LYP6,25,714,"Eugene. Didn't encounter any bugs. Instructions were very clear, task was easy to understand. From opening your document in slack to this page, it took ~14.5 minutes. Overall, it seems to be easy to use and functioning properly. ",378XPAWRUDXN57GX3I3ENYLSYTPIAS,white,corrected,01/07/2018@11:57:40,male,"Mozilla/5.0 (Windows NT 10.0; Win64; x64) AppleWebKit/537.36 (KHTML, like Gecko) Chrome/67.0.3396.99 Safari/537.36",382.062,hispanic,864,215.977,2,1600,2,left,StartBlock,2,1,2,color,0
1536,658,A174Y3C2S7LYP6,25,714,"Eugene. Didn't encounter any bugs. Instructions were very clear, task was easy to understand. From opening your document in slack to this page, it took ~14.5 minutes. Overall, it seems to be easy to use and functioning properly. ",378XPAWRUDXN57GX3I3ENYLSYTPIAS,white,corrected,01/07/2018@11:57:40,male,"Mozilla/5.0 (Windows NT 10.0; Win64; x64) AppleWebKit/537.36 (KHTML, like Gecko) Chrome/67.0.3396.99 Safari/537.36",382.062,hispanic,864,215.977,2,778,3,left,Repeat,2,2,1,color,0
1536,658,A174Y3C2S7LYP6,25,714,"Eugene. Didn't encounter any bugs. Instructions were very clear, task was easy to understand. From opening your document in slack to this page, it took ~14.5 minutes. Overall, it seems to be easy to use and functioning properly. ",378XPAWRUDXN57GX3I3ENYLSYTPIAS,white,corrected,01/07/2018@11:57:40,male,"Mozilla/5.0 (Windows NT 10.0; Win64; x64) AppleWebKit/537.36 (KHTML, like Gecko) Chrome/67.0.3396.99 Safari/537.36",382.062,hispanic,864,215.977,2,791,6,right,Switch,3,3,1,shape,0
1536,658,A174Y3C2S7LYP6,25,714,"Eugene. Didn't encounter any bugs. Instructions were very clear, task was easy to understand. From opening your document in slack to this page, it took ~14.5 minutes. Overall, it seems to be easy to use and functioning properly. ",378XPAWRUDXN57GX3I3ENYLSYTPIAS,white,corrected,01/07/2018@11:57:40,male,"Mozilla/5.0 (Windows NT 10.0; Win64; x64) AppleWebKit/537.36 (KHTML, like Gecko) Chrome/67.0.3396.99 Safari/537.36",382.062,hispanic,864,215.977,2,506,9,right,Repeat,3,4,2,shape,0
1536,658,A174Y3C2S7LYP6,25,714,"Eugene. Didn't encounter any bugs. Instructions were very clear, task was easy to understand. From opening your document in slack to this page, it took ~14.5 minutes. Overall, it seems to be easy to use and functioning properly. ",378XPAWRUDXN57GX3I3ENYLSYTPIAS,white,corrected,01/07/2018@11:57:40,male,"Mozilla/5.0 (Windows NT 10.0; Win64; x64) AppleWebKit/537.36 (KHTML, like Gecko) Chrome/67.0.3396.99 Safari/537.36",382.062,hispanic,864,215.977,2,420,12,right,Repeat,3,5,3,shape,0
1536,658,A174Y3C2S7LYP6,25,714,"Eugene. Didn't encounter any bugs. Instructions were very clear, task was easy to understand. From opening your document in slack to this page, it took ~14.5 minutes. Overall, it seems to be easy to use and functioning properly. ",378XPAWRUDXN57GX3I3ENYLSYTPIAS,white,corrected,01/07/2018@11:57:40,male,"Mozilla/5.0 (Windows NT 10.0; Win64; x64) AppleWebKit/537.36 (KHTML, like Gecko) Chrome/67.0.3396.99 Safari/537.36",382.062,hispanic,864,215.977,2,918,15,left,Switch,3,6,3,color,0
1536,658,A174Y3C2S7LYP6,25,714,"Eugene. Didn't encounter any bugs. Instructions were very clear, task was easy to understand. From opening your document in slack to this page, it took ~14.5 minutes. Overall, it seems to be easy to use and functioning properly. ",378XPAWRUDXN57GX3I3ENYLSYTPIAS,white,corrected,01/07/2018@11:57:40,male,"Mozilla/5.0 (Windows NT 10.0; Win64; x64) AppleWebKit/537.36 (KHTML, like Gecko) Chrome/67.0.3396.99 Safari/537.36",382.062,hispanic,864,215.977,2,963,18,right,Switch,3,7,3,shape,0
1536,658,A174Y3C2S7LYP6,25,714,"Eugene. Didn't encounter any bugs. Instructions were very clear, task was easy to understand. From opening your document in slack to this page, it took ~14.5 minutes. Overall, it seems to be easy to use and functioning properly. ",378XPAWRUDXN57GX3I3ENYLSYTPIAS,white,corrected,01/07/2018@11:57:40,male,"Mozilla/5.0 (Windows NT 10.0; Win64; x64) AppleWebKit/537.36 (KHTML, like Gecko) Chrome/67.0.3396.99 Safari/537.36",382.062,hispanic,864,215.977,2,496,21,left,Switch,3,8,3,color,0
1536,658,A174Y3C2S7LYP6,25,714,"Eugene. Didn't encounter any bugs. Instructions were very clear, task was easy to understand. From opening your document in slack to this page, it took ~14.5 minutes. Overall, it seems to be easy to use and functioning properly. ",378XPAWRUDXN57GX3I3ENYLSYTPIAS,white,corrected,01/07/2018@11:57:40,male,"Mozilla/5.0 (Windows NT 10.0; Win64; x64) AppleWebKit/537.36 (KHTML, like Gecko) Chrome/67.0.3396.99 Safari/537.36",382.062,hispanic,864,215.977,2,580,24,right,Switch,3,9,2,shape,0
1536,658,A174Y3C2S7LYP6,25,714,"Eugene. Didn't encounter any bugs. Instructions were very clear, task was easy to understand. From opening your document in slack to this page, it took ~14.5 minutes. Overall, it seems to be easy to use and functioning properly. ",378XPAWRUDXN57GX3I3ENYLSYTPIAS,white,corrected,01/07/2018@11:57:40,male,"Mozilla/5.0 (Windows NT 10.0; Win64; x64) AppleWebKit/537.36 (KHTML, like Gecko) Chrome/67.0.3396.99 Safari/537.36",382.062,hispanic,864,215.977,2,491,27,right,Repeat,3,10,2,shape,0
1536,658,A174Y3C2S7LYP6,25,714,"Eugene. Didn't encounter any bugs. Instructions were very clear, task was easy to understand. From opening your document in slack to this page, it took ~14.5 minutes. Overall, it seems to be easy to use and functioning properly. ",378XPAWRUDXN57GX3I3ENYLSYTPIAS,white,corrected,01/07/2018@11:57:40,male,"Mozilla/5.0 (Windows NT 10.0; Win64; x64) AppleWebKit/537.36 (KHTML, like Gecko) Chrome/67.0.3396.99 Safari/537.36",382.062,hispanic,864,215.977,2,1675,30,right,Repeat,3,11,3,shape,0
1536,658,A174Y3C2S7LYP6,25,714,"Eugene. Didn't encounter any bugs. Instructions were very clear, task was easy to understand. From opening your document in slack to this page, it took ~14.5 minutes. Overall, it seems to be easy to use and functioning properly. ",378XPAWRUDXN57GX3I3ENYLSYTPIAS,white,corrected,01/07/2018@11:57:40,male,"Mozilla/5.0 (Windows NT 10.0; Win64; x64) AppleWebKit/537.36 (KHTML, like Gecko) Chrome/67.0.3396.99 Safari/537.36",382.062,hispanic,864,215.977,2,487,30,left,Switch,2,12,3,color,1
1536,658,A174Y3C2S7LYP6,25,714,"Eugene. Didn't encounter any bugs. Instructions were very clear, task was easy to understand. From opening your document in slack to this page, it took ~14.5 minutes. Overall, it seems to be easy to use and functioning properly. ",378XPAWRUDXN57GX3I3ENYLSYTPIAS,white,corrected,01/07/2018@11:57:40,male,"Mozilla/5.0 (Windows NT 10.0; Win64; x64) AppleWebKit/537.36 (KHTML, like Gecko) Chrome/67.0.3396.99 Safari/537.36",382.062,hispanic,864,215.977,2,807,32,left,Repeat,2,13,2,color,0
1536,658,A174Y3C2S7LYP6,25,714,"Eugene. Didn't encounter any bugs. Instructions were very clear, task was easy to understand. From opening your document in slack to this page, it took ~14.5 minutes. Overall, it seems to be easy to use and functioning properly. ",378XPAWRUDXN57GX3I3ENYLSYTPIAS,white,corrected,01/07/2018@11:57:40,male,"Mozilla/5.0 (Windows NT 10.0; Win64; x64) AppleWebKit/537.36 (KHTML, like Gecko) Chrome/67.0.3396.99 Safari/537.36",382.062,hispanic,864,215.977,2,973,33,left,Repeat,3,14,1,color,0
1536,658,A174Y3C2S7LYP6,25,714,"Eugene. Didn't encounter any bugs. Instructions were very clear, task was easy to understand. From opening your document in slack to this page, it took ~14.5 minutes. Overall, it seems to be easy to use and functioning properly. ",378XPAWRUDXN57GX3I3ENYLSYTPIAS,white,corrected,01/07/2018@11:57:40,male,"Mozilla/5.0 (Windows NT 10.0; Win64; x64) AppleWebKit/537.36 (KHTML, like Gecko) Chrome/67.0.3396.99 Safari/537.36",382.062,hispanic,864,215.977,2,617,36,right,Switch,3,15,1,shape,0
1536,658,A174Y3C2S7LYP6,25,714,"Eugene. Didn't encounter any bugs. Instructions were very clear, task was easy to understand. From opening your document in slack to this page, it took ~14.5 minutes. Overall, it seems to be easy to use and functioning properly. ",378XPAWRUDXN57GX3I3ENYLSYTPIAS,white,corrected,01/07/2018@11:57:40,male,"Mozilla/5.0 (Windows NT 10.0; Win64; x64) AppleWebKit/537.36 (KHTML, like Gecko) Chrome/67.0.3396.99 Safari/537.36",382.062,hispanic,864,215.977,2,386,39,right,Repeat,3,16,2,shape,0
1536,658,A174Y3C2S7LYP6,25,714,"Eugene. Didn't encounter any bugs. Instructions were very clear, task was easy to understand. From opening your document in slack to this page, it took ~14.5 minutes. Overall, it seems to be easy to use and functioning properly. ",378XPAWRUDXN57GX3I3ENYLSYTPIAS,white,corrected,01/07/2018@11:57:40,male,"Mozilla/5.0 (Windows NT 10.0; Win64; x64) AppleWebKit/537.36 (KHTML, like Gecko) Chrome/67.0.3396.99 Safari/537.36",382.062,hispanic,864,215.977,2,490,42,right,Repeat,3,17,2,shape,0
1536,658,A174Y3C2S7LYP6,25,714,"Eugene. Didn't encounter any bugs. Instructions were very clear, task was easy to understand. From opening your document in slack to this page, it took ~14.5 minutes. Overall, it seems to be easy to use and functioning properly. ",378XPAWRUDXN57GX3I3ENYLSYTPIAS,white,corrected,01/07/2018@11:57:40,male,"Mozilla/5.0 (Windows NT 10.0; Win64; x64) AppleWebKit/537.36 (KHTML, like Gecko) Chrome/67.0.3396.99 Safari/537.36",382.062,hispanic,864,215.977,2,397,44,right,Repeat,2,18,3,shape,0
1536,658,A174Y3C2S7LYP6,25,714,"Eugene. Didn't encounter any bugs. Instructions were very clear, task was easy to understand. From opening your document in slack to this page, it took ~14.5 minutes. Overall, it seems to be easy to use and functioning properly. ",378XPAWRUDXN57GX3I3ENYLSYTPIAS,white,corrected,01/07/2018@11:57:40,male,"Mozilla/5.0 (Windows NT 10.0; Win64; x64) AppleWebKit/537.36 (KHTML, like Gecko) Chrome/67.0.3396.99 Safari/537.36",382.062,hispanic,864,215.977,2,616,47,left,Switch,1,19,3,color,0
1536,658,A174Y3C2S7LYP6,25,714,"Eugene. Didn't encounter any bugs. Instructions were very clear, task was easy to understand. From opening your document in slack to this page, it took ~14.5 minutes. Overall, it seems to be easy to use and functioning properly. ",378XPAWRUDXN57GX3I3ENYLSYTPIAS,white,corrected,01/07/2018@11:57:40,male,"Mozilla/5.0 (Windows NT 10.0; Win64; x64) AppleWebKit/537.36 (KHTML, like Gecko) Chrome/67.0.3396.99 Safari/537.36",382.062,hispanic,864,215.977,2,655,47,left,Repeat,1,20,3,color,1
1536,658,A174Y3C2S7LYP6,25,714,"Eugene. Didn't encounter any bugs. Instructions were very clear, task was easy to understand. From opening your document in slack to this page, it took ~14.5 minutes. Overall, it seems to be easy to use and functioning properly. ",378XPAWRUDXN57GX3I3ENYLSYTPIAS,white,corrected,01/07/2018@11:57:40,male,"Mozilla/5.0 (Windows NT 10.0; Win64; x64) AppleWebKit/537.36 (KHTML, like Gecko) Chrome/67.0.3396.99 Safari/537.36",382.062,hispanic,864,215.977,2,1153,49,left,Repeat,2,21,2,color,0
1536,658,A174Y3C2S7LYP6,25,714,"Eugene. Didn't encounter any bugs. Instructions were very clear, task was easy to understand. From opening your document in slack to this page, it took ~14.5 minutes. Overall, it seems to be easy to use and functioning properly. ",378XPAWRUDXN57GX3I3ENYLSYTPIAS,white,corrected,01/07/2018@11:57:40,male,"Mozilla/5.0 (Windows NT 10.0; Win64; x64) AppleWebKit/537.36 (KHTML, like Gecko) Chrome/67.0.3396.99 Safari/537.36",382.062,hispanic,864,215.977,2,340,51,left,Repeat,2,22,2,color,0
1536,658,A174Y3C2S7LYP6,25,714,"Eugene. Didn't encounter any bugs. Instructions were very clear, task was easy to understand. From opening your document in slack to this page, it took ~14.5 minutes. Overall, it seems to be easy to use and functioning properly. ",378XPAWRUDXN57GX3I3ENYLSYTPIAS,white,corrected,01/07/2018@11:57:40,male,"Mozilla/5.0 (Windows NT 10.0; Win64; x64) AppleWebKit/537.36 (KHTML, like Gecko) Chrome/67.0.3396.99 Safari/537.36",382.062,hispanic,864,215.977,2,659,53,right,Switch,2,23,1,shape,0
1536,658,A174Y3C2S7LYP6,25,714,"Eugene. Didn't encounter any bugs. Instructions were very clear, task was easy to understand. From opening your document in slack to this page, it took ~14.5 minutes. Overall, it seems to be easy to use and functioning properly. ",378XPAWRUDXN57GX3I3ENYLSYTPIAS,white,corrected,01/07/2018@11:57:40,male,"Mozilla/5.0 (Windows NT 10.0; Win64; x64) AppleWebKit/537.36 (KHTML, like Gecko) Chrome/67.0.3396.99 Safari/537.36",382.062,hispanic,864,215.977,2,798,55,right,Repeat,2,24,1,shape,0
1536,658,A174Y3C2S7LYP6,25,714,"Eugene. Didn't encounter any bugs. Instructions were very clear, task was easy to understand. From opening your document in slack to this page, it took ~14.5 minutes. Overall, it seems to be easy to use and functioning properly. ",378XPAWRUDXN57GX3I3ENYLSYTPIAS,white,corrected,01/07/2018@11:57:40,male,"Mozilla/5.0 (Windows NT 10.0; Win64; x64) AppleWebKit/537.36 (KHTML, like Gecko) Chrome/67.0.3396.99 Safari/537.36",382.062,hispanic,864,215.977,2,397,57,right,Repeat,2,25,1,shape,0
1536,658,A174Y3C2S7LYP6,25,714,"Eugene. Didn't encounter any bugs. Instructions were very clear, task was easy to understand. From opening your document in slack to this page, it took ~14.5 minutes. Overall, it seems to be easy to use and functioning properly. ",378XPAWRUDXN57GX3I3ENYLSYTPIAS,white,corrected,01/07/2018@11:57:40,male,"Mozilla/5.0 (Windows NT 10.0; Win64; x64) AppleWebKit/537.36 (KHTML, like Gecko) Chrome/67.0.3396.99 Safari/537.36",382.062,hispanic,864,215.977,2,536,58,left,Switch,1,26,1,color,0
1536,658,A174Y3C2S7LYP6,25,714,"Eugene. Didn't encounter any bugs. Instructions were very clear, task was easy to understand. From opening your document in slack to this page, it took ~14.5 minutes. Overall, it seems to be easy to use and functioning properly. ",378XPAWRUDXN57GX3I3ENYLSYTPIAS,white,corrected,01/07/2018@11:57:40,male,"Mozilla/5.0 (Windows NT 10.0; Win64; x64) AppleWebKit/537.36 (KHTML, like Gecko) Chrome/67.0.3396.99 Safari/537.36",382.062,hispanic,864,215.977,2,1615,60,right,Switch,2,27,1,shape,0
1536,658,A174Y3C2S7LYP6,25,714,"Eugene. Didn't encounter any bugs. Instructions were very clear, task was easy to understand. From opening your document in slack to this page, it took ~14.5 minutes. Overall, it seems to be easy to use and functioning properly. ",378XPAWRUDXN57GX3I3ENYLSYTPIAS,white,corrected,01/07/2018@11:57:40,male,"Mozilla/5.0 (Windows NT 10.0; Win64; x64) AppleWebKit/537.36 (KHTML, like Gecko) Chrome/67.0.3396.99 Safari/537.36",382.062,hispanic,864,215.977,2,1119,61,right,Repeat,1,28,1,shape,0
1536,658,A174Y3C2S7LYP6,25,714,"Eugene. Didn't encounter any bugs. Instructions were very clear, task was easy to understand. From opening your document in slack to this page, it took ~14.5 minutes. Overall, it seems to be easy to use and functioning properly. ",378XPAWRUDXN57GX3I3ENYLSYTPIAS,white,corrected,01/07/2018@11:57:40,male,"Mozilla/5.0 (Windows NT 10.0; Win64; x64) AppleWebKit/537.36 (KHTML, like Gecko) Chrome/67.0.3396.99 Safari/537.36",382.062,hispanic,864,215.977,2,679,61,left,Switch,1,29,2,color,1
1536,658,A174Y3C2S7LYP6,25,714,"Eugene. Didn't encounter any bugs. Instructions were very clear, task was easy to understand. From opening your document in slack to this page, it took ~14.5 minutes. Overall, it seems to be easy to use and functioning properly. ",378XPAWRUDXN57GX3I3ENYLSYTPIAS,white,corrected,01/07/2018@11:57:40,male,"Mozilla/5.0 (Windows NT 10.0; Win64; x64) AppleWebKit/537.36 (KHTML, like Gecko) Chrome/67.0.3396.99 Safari/537.36",382.062,hispanic,864,215.977,2,624,63,left,Repeat,2,30,2,color,0
1536,658,A174Y3C2S7LYP6,25,714,"Eugene. Didn't encounter any bugs. Instructions were very clear, task was easy to understand. From opening your document in slack to this page, it took ~14.5 minutes. Overall, it seems to be easy to use and functioning properly. ",378XPAWRUDXN57GX3I3ENYLSYTPIAS,white,corrected,01/07/2018@11:57:40,male,"Mozilla/5.0 (Windows NT 10.0; Win64; x64) AppleWebKit/537.36 (KHTML, like Gecko) Chrome/67.0.3396.99 Safari/537.36",382.062,hispanic,864,215.977,2,528,65,left,Repeat,2,31,2,color,0
1536,658,A174Y3C2S7LYP6,25,714,"Eugene. Didn't encounter any bugs. Instructions were very clear, task was easy to understand. From opening your document in slack to this page, it took ~14.5 minutes. Overall, it seems to be easy to use and functioning properly. ",378XPAWRUDXN57GX3I3ENYLSYTPIAS,white,corrected,01/07/2018@11:57:40,male,"Mozilla/5.0 (Windows NT 10.0; Win64; x64) AppleWebKit/537.36 (KHTML, like Gecko) Chrome/67.0.3396.99 Safari/537.36",382.062,hispanic,864,215.977,2,435,67,left,Repeat,3,32,2,color,0
1536,658,A174Y3C2S7LYP6,25,714,"Eugene. Didn't encounter any bugs. Instructions were very clear, task was easy to understand. From opening your document in slack to this page, it took ~14.5 minutes. Overall, it seems to be easy to use and functioning properly. ",378XPAWRUDXN57GX3I3ENYLSYTPIAS,white,corrected,01/07/2018@11:57:40,male,"Mozilla/5.0 (Windows NT 10.0; Win64; x64) AppleWebKit/537.36 (KHTML, like Gecko) Chrome/67.0.3396.99 Safari/537.36",382.062,hispanic,864,215.977,2,580,70,right,Switch,3,33,1,shape,0
1536,658,A174Y3C2S7LYP6,25,714,"Eugene. Didn't encounter any bugs. Instructions were very clear, task was easy to understand. From opening your document in slack to this page, it took ~14.5 minutes. Overall, it seems to be easy to use and functioning properly. ",378XPAWRUDXN57GX3I3ENYLSYTPIAS,white,corrected,01/07/2018@11:57:40,male,"Mozilla/5.0 (Windows NT 10.0; Win64; x64) AppleWebKit/537.36 (KHTML, like Gecko) Chrome/67.0.3396.99 Safari/537.36",382.062,hispanic,864,215.977,2,1016,72,right,Repeat,2,34,1,shape,0
1536,658,A174Y3C2S7LYP6,25,714,"Eugene. Didn't encounter any bugs. Instructions were very clear, task was easy to understand. From opening your document in slack to this page, it took ~14.5 minutes. Overall, it seems to be easy to use and functioning properly. ",378XPAWRUDXN57GX3I3ENYLSYTPIAS,white,corrected,01/07/2018@11:57:40,male,"Mozilla/5.0 (Windows NT 10.0; Win64; x64) AppleWebKit/537.36 (KHTML, like Gecko) Chrome/67.0.3396.99 Safari/537.36",382.062,hispanic,864,215.977,2,566,72,right,Repeat,2,35,1,shape,1
1536,658,A174Y3C2S7LYP6,25,714,"Eugene. Didn't encounter any bugs. Instructions were very clear, task was easy to understand. From opening your document in slack to this page, it took ~14.5 minutes. Overall, it seems to be easy to use and functioning properly. ",378XPAWRUDXN57GX3I3ENYLSYTPIAS,white,corrected,01/07/2018@11:57:40,male,"Mozilla/5.0 (Windows NT 10.0; Win64; x64) AppleWebKit/537.36 (KHTML, like Gecko) Chrome/67.0.3396.99 Safari/537.36",382.062,hispanic,864,215.977,2,611,72,right,Repeat,2,36,2,shape,1
1536,658,A174Y3C2S7LYP6,25,714,"Eugene. Didn't encounter any bugs. Instructions were very clear, task was easy to understand. From opening your document in slack to this page, it took ~14.5 minutes. Overall, it seems to be easy to use and functioning properly. ",378XPAWRUDXN57GX3I3ENYLSYTPIAS,white,corrected,01/07/2018@11:57:40,male,"Mozilla/5.0 (Windows NT 10.0; Win64; x64) AppleWebKit/537.36 (KHTML, like Gecko) Chrome/67.0.3396.99 Safari/537.36",382.062,hispanic,864,215.977,2,698,75,left,Switch,1,37,3,color,0
1536,658,A174Y3C2S7LYP6,25,714,"Eugene. Didn't encounter any bugs. Instructions were very clear, task was easy to understand. From opening your document in slack to this page, it took ~14.5 minutes. Overall, it seems to be easy to use and functioning properly. ",378XPAWRUDXN57GX3I3ENYLSYTPIAS,white,corrected,01/07/2018@11:57:40,male,"Mozilla/5.0 (Windows NT 10.0; Win64; x64) AppleWebKit/537.36 (KHTML, like Gecko) Chrome/67.0.3396.99 Safari/537.36",382.062,hispanic,864,215.977,2,1368,77,left,Repeat,1,38,2,color,0
1536,658,A174Y3C2S7LYP6,25,714,"Eugene. Didn't encounter any bugs. Instructions were very clear, task was easy to understand. From opening your document in slack to this page, it took ~14.5 minutes. Overall, it seems to be easy to use and functioning properly. ",378XPAWRUDXN57GX3I3ENYLSYTPIAS,white,corrected,01/07/2018@11:57:40,male,"Mozilla/5.0 (Windows NT 10.0; Win64; x64) AppleWebKit/537.36 (KHTML, like Gecko) Chrome/67.0.3396.99 Safari/537.36",382.062,hispanic,864,215.977,2,1971,79,left,Repeat,1,39,2,color,0
1536,658,A174Y3C2S7LYP6,25,714,"Eugene. Didn't encounter any bugs. Instructions were very clear, task was easy to understand. From opening your document in slack to this page, it took ~14.5 minutes. Overall, it seems to be easy to use and functioning properly. ",378XPAWRUDXN57GX3I3ENYLSYTPIAS,white,corrected,01/07/2018@11:57:40,male,"Mozilla/5.0 (Windows NT 10.0; Win64; x64) AppleWebKit/537.36 (KHTML, like Gecko) Chrome/67.0.3396.99 Safari/537.36",382.062,hispanic,864,215.977,2,1216,80,right,Switch,1,40,1,shape,0
1536,658,A174Y3C2S7LYP6,25,714,"Eugene. Didn't encounter any bugs. Instructions were very clear, task was easy to understand. From opening your document in slack to this page, it took ~14.5 minutes. Overall, it seems to be easy to use and functioning properly. ",378XPAWRUDXN57GX3I3ENYLSYTPIAS,white,corrected,01/07/2018@11:57:40,male,"Mozilla/5.0 (Windows NT 10.0; Win64; x64) AppleWebKit/537.36 (KHTML, like Gecko) Chrome/67.0.3396.99 Safari/537.36",382.062,hispanic,864,215.977,2,412,81,right,Repeat,1,41,2,shape,0
1536,658,A174Y3C2S7LYP6,25,714,"Eugene. Didn't encounter any bugs. Instructions were very clear, task was easy to understand. From opening your document in slack to this page, it took ~14.5 minutes. Overall, it seems to be easy to use and functioning properly. ",378XPAWRUDXN57GX3I3ENYLSYTPIAS,white,corrected,01/07/2018@11:57:40,male,"Mozilla/5.0 (Windows NT 10.0; Win64; x64) AppleWebKit/537.36 (KHTML, like Gecko) Chrome/67.0.3396.99 Safari/537.36",382.062,hispanic,864,215.977,2,1031,83,left,Switch,1,42,2,color,0
1536,658,A174Y3C2S7LYP6,25,714,"Eugene. Didn't encounter any bugs. Instructions were very clear, task was easy to understand. From opening your document in slack to this page, it took ~14.5 minutes. Overall, it seems to be easy to use and functioning properly. ",378XPAWRUDXN57GX3I3ENYLSYTPIAS,white,corrected,01/07/2018@11:57:40,male,"Mozilla/5.0 (Windows NT 10.0; Win64; x64) AppleWebKit/537.36 (KHTML, like Gecko) Chrome/67.0.3396.99 Safari/537.36",382.062,hispanic,864,215.977,2,1946,85,left,Repeat,1,43,2,color,0
1536,658,A174Y3C2S7LYP6,25,714,"Eugene. Didn't encounter any bugs. Instructions were very clear, task was easy to understand. From opening your document in slack to this page, it took ~14.5 minutes. Overall, it seems to be easy to use and functioning properly. ",378XPAWRUDXN57GX3I3ENYLSYTPIAS,white,corrected,01/07/2018@11:57:40,male,"Mozilla/5.0 (Windows NT 10.0; Win64; x64) AppleWebKit/537.36 (KHTML, like Gecko) Chrome/67.0.3396.99 Safari/537.36",382.062,hispanic,864,215.977,2,797,85,left,Repeat,1,44,2,color,1
1536,658,A174Y3C2S7LYP6,25,714,"Eugene. Didn't encounter any bugs. Instructions were very clear, task was easy to understand. From opening your document in slack to this page, it took ~14.5 minutes. Overall, it seems to be easy to use and functioning properly. ",378XPAWRUDXN57GX3I3ENYLSYTPIAS,white,corrected,01/07/2018@11:57:40,male,"Mozilla/5.0 (Windows NT 10.0; Win64; x64) AppleWebKit/537.36 (KHTML, like Gecko) Chrome/67.0.3396.99 Safari/537.36",382.062,hispanic,864,215.977,2,436,86,left,Repeat,2,45,1,color,0
1536,658,A174Y3C2S7LYP6,25,714,"Eugene. Didn't encounter any bugs. Instructions were very clear, task was easy to understand. From opening your document in slack to this page, it took ~14.5 minutes. Overall, it seems to be easy to use and functioning properly. ",378XPAWRUDXN57GX3I3ENYLSYTPIAS,white,corrected,01/07/2018@11:57:40,male,"Mozilla/5.0 (Windows NT 10.0; Win64; x64) AppleWebKit/537.36 (KHTML, like Gecko) Chrome/67.0.3396.99 Safari/537.36",382.062,hispanic,864,215.977,2,764,86,right,Switch,3,46,1,shape,1
1536,658,A174Y3C2S7LYP6,25,714,"Eugene. Didn't encounter any bugs. Instructions were very clear, task was easy to understand. From opening your document in slack to this page, it took ~14.5 minutes. Overall, it seems to be easy to use and functioning properly. ",378XPAWRUDXN57GX3I3ENYLSYTPIAS,white,corrected,01/07/2018@11:57:40,male,"Mozilla/5.0 (Windows NT 10.0; Win64; x64) AppleWebKit/537.36 (KHTML, like Gecko) Chrome/67.0.3396.99 Safari/537.36",382.062,hispanic,864,215.977,2,2620,89,right,Repeat,3,47,2,shape,0
1536,658,A174Y3C2S7LYP6,25,714,"Eugene. Didn't encounter any bugs. Instructions were very clear, task was easy to understand. From opening your document in slack to this page, it took ~14.5 minutes. Overall, it seems to be easy to use and functioning properly. ",378XPAWRUDXN57GX3I3ENYLSYTPIAS,white,corrected,01/07/2018@11:57:40,male,"Mozilla/5.0 (Windows NT 10.0; Win64; x64) AppleWebKit/537.36 (KHTML, like Gecko) Chrome/67.0.3396.99 Safari/537.36",382.062,hispanic,864,215.977,2,733,92,right,Repeat,3,48,3,shape,0
1536,658,A174Y3C2S7LYP6,25,714,"Eugene. Didn't encounter any bugs. Instructions were very clear, task was easy to understand. From opening your document in slack to this page, it took ~14.5 minutes. Overall, it seems to be easy to use and functioning properly. ",378XPAWRUDXN57GX3I3ENYLSYTPIAS,white,corrected,01/07/2018@11:57:40,male,"Mozilla/5.0 (Windows NT 10.0; Win64; x64) AppleWebKit/537.36 (KHTML, like Gecko) Chrome/67.0.3396.99 Safari/537.36",382.062,hispanic,864,215.977,2,1171,95,left,Switch,2,49,3,color,0
1536,658,A174Y3C2S7LYP6,25,714,"Eugene. Didn't encounter any bugs. Instructions were very clear, task was easy to understand. From opening your document in slack to this page, it took ~14.5 minutes. Overall, it seems to be easy to use and functioning properly. ",378XPAWRUDXN57GX3I3ENYLSYTPIAS,white,corrected,01/07/2018@11:57:40,male,"Mozilla/5.0 (Windows NT 10.0; Win64; x64) AppleWebKit/537.36 (KHTML, like Gecko) Chrome/67.0.3396.99 Safari/537.36",382.062,hispanic,864,215.977,2,664,98,right,Switch,3,50,3,shape,0
1536,658,A174Y3C2S7LYP6,25,714,"Eugene. Didn't encounter any bugs. Instructions were very clear, task was easy to understand. From opening your document in slack to this page, it took ~14.5 minutes. Overall, it seems to be easy to use and functioning properly. ",378XPAWRUDXN57GX3I3ENYLSYTPIAS,white,corrected,01/07/2018@11:57:40,male,"Mozilla/5.0 (Windows NT 10.0; Win64; x64) AppleWebKit/537.36 (KHTML, like Gecko) Chrome/67.0.3396.99 Safari/537.36",382.062,hispanic,864,215.977,2,411,101,left,Switch,2,51,3,color,0
1536,658,A174Y3C2S7LYP6,25,714,"Eugene. Didn't encounter any bugs. Instructions were very clear, task was easy to understand. From opening your document in slack to this page, it took ~14.5 minutes. Overall, it seems to be easy to use and functioning properly. ",378XPAWRUDXN57GX3I3ENYLSYTPIAS,white,corrected,01/07/2018@11:57:40,male,"Mozilla/5.0 (Windows NT 10.0; Win64; x64) AppleWebKit/537.36 (KHTML, like Gecko) Chrome/67.0.3396.99 Safari/537.36",382.062,hispanic,864,215.977,2,1572,104,right,Switch,3,52,3,shape,0
1536,658,A174Y3C2S7LYP6,25,714,"Eugene. Didn't encounter any bugs. Instructions were very clear, task was easy to understand. From opening your document in slack to this page, it took ~14.5 minutes. Overall, it seems to be easy to use and functioning properly. ",378XPAWRUDXN57GX3I3ENYLSYTPIAS,white,corrected,01/07/2018@11:57:40,male,"Mozilla/5.0 (Windows NT 10.0; Win64; x64) AppleWebKit/537.36 (KHTML, like Gecko) Chrome/67.0.3396.99 Safari/537.36",382.062,hispanic,864,215.977,2,989,107,right,Repeat,3,53,3,shape,0
1536,658,A174Y3C2S7LYP6,25,714,"Eugene. Didn't encounter any bugs. Instructions were very clear, task was easy to understand. From opening your document in slack to this page, it took ~14.5 minutes. Overall, it seems to be easy to use and functioning properly. ",378XPAWRUDXN57GX3I3ENYLSYTPIAS,white,corrected,01/07/2018@11:57:40,male,"Mozilla/5.0 (Windows NT 10.0; Win64; x64) AppleWebKit/537.36 (KHTML, like Gecko) Chrome/67.0.3396.99 Safari/537.36",382.062,hispanic,864,215.977,2,637,110,left,Switch,2,54,3,color,0
1536,658,A174Y3C2S7LYP6,25,714,"Eugene. Didn't encounter any bugs. Instructions were very clear, task was easy to understand. From opening your document in slack to this page, it took ~14.5 minutes. Overall, it seems to be easy to use and functioning properly. ",378XPAWRUDXN57GX3I3ENYLSYTPIAS,white,corrected,01/07/2018@11:57:40,male,"Mozilla/5.0 (Windows NT 10.0; Win64; x64) AppleWebKit/537.36 (KHTML, like Gecko) Chrome/67.0.3396.99 Safari/537.36",382.062,hispanic,864,215.977,2,484,112,left,Repeat,2,55,2,color,0
1536,658,A174Y3C2S7LYP6,25,714,"Eugene. Didn't encounter any bugs. Instructions were very clear, task was easy to understand. From opening your document in slack to this page, it took ~14.5 minutes. Overall, it seems to be easy to use and functioning properly. ",378XPAWRUDXN57GX3I3ENYLSYTPIAS,white,corrected,01/07/2018@11:57:40,male,"Mozilla/5.0 (Windows NT 10.0; Win64; x64) AppleWebKit/537.36 (KHTML, like Gecko) Chrome/67.0.3396.99 Safari/537.36",382.062,hispanic,864,215.977,2,1066,114,right,Switch,2,56,1,shape,0
1536,658,A174Y3C2S7LYP6,25,714,"Eugene. Didn't encounter any bugs. Instructions were very clear, task was easy to understand. From opening your document in slack to this page, it took ~14.5 minutes. Overall, it seems to be easy to use and functioning properly. ",378XPAWRUDXN57GX3I3ENYLSYTPIAS,white,corrected,01/07/2018@11:57:40,male,"Mozilla/5.0 (Windows NT 10.0; Win64; x64) AppleWebKit/537.36 (KHTML, like Gecko) Chrome/67.0.3396.99 Safari/537.36",382.062,hispanic,864,215.977,2,759,116,right,Repeat,2,57,2,shape,0
1536,658,A174Y3C2S7LYP6,25,714,"Eugene. Didn't encounter any bugs. Instructions were very clear, task was easy to understand. From opening your document in slack to this page, it took ~14.5 minutes. Overall, it seems to be easy to use and functioning properly. ",378XPAWRUDXN57GX3I3ENYLSYTPIAS,white,corrected,01/07/2018@11:57:40,male,"Mozilla/5.0 (Windows NT 10.0; Win64; x64) AppleWebKit/537.36 (KHTML, like Gecko) Chrome/67.0.3396.99 Safari/537.36",382.062,hispanic,864,215.977,2,631,119,left,Switch,1,58,3,color,0
1536,658,A174Y3C2S7LYP6,25,714,"Eugene. Didn't encounter any bugs. Instructions were very clear, task was easy to understand. From opening your document in slack to this page, it took ~14.5 minutes. Overall, it seems to be easy to use and functioning properly. ",378XPAWRUDXN57GX3I3ENYLSYTPIAS,white,corrected,01/07/2018@11:57:40,male,"Mozilla/5.0 (Windows NT 10.0; Win64; x64) AppleWebKit/537.36 (KHTML, like Gecko) Chrome/67.0.3396.99 Safari/537.36",382.062,hispanic,864,215.977,2,848,121,left,Repeat,1,59,2,color,0
1536,658,A174Y3C2S7LYP6,25,714,"Eugene. Didn't encounter any bugs. Instructions were very clear, task was easy to understand. From opening your document in slack to this page, it took ~14.5 minutes. Overall, it seems to be easy to use and functioning properly. ",378XPAWRUDXN57GX3I3ENYLSYTPIAS,white,corrected,01/07/2018@11:57:40,male,"Mozilla/5.0 (Windows NT 10.0; Win64; x64) AppleWebKit/537.36 (KHTML, like Gecko) Chrome/67.0.3396.99 Safari/537.36",382.062,hispanic,864,215.977,2,711,123,left,Repeat,1,60,2,color,0
1536,658,A174Y3C2S7LYP6,25,714,"Eugene. Didn't encounter any bugs. Instructions were very clear, task was easy to understand. From opening your document in slack to this page, it took ~14.5 minutes. Overall, it seems to be easy to use and functioning properly. ",378XPAWRUDXN57GX3I3ENYLSYTPIAS,white,corrected,01/07/2018@11:57:40,male,"Mozilla/5.0 (Windows NT 10.0; Win64; x64) AppleWebKit/537.36 (KHTML, like Gecko) Chrome/67.0.3396.99 Safari/537.36",382.062,hispanic,864,215.977,2,1094,125,right,Switch,2,61,1,shape,0
1536,658,A174Y3C2S7LYP6,25,714,"Eugene. Didn't encounter any bugs. Instructions were very clear, task was easy to understand. From opening your document in slack to this page, it took ~14.5 minutes. Overall, it seems to be easy to use and functioning properly. ",378XPAWRUDXN57GX3I3ENYLSYTPIAS,white,corrected,01/07/2018@11:57:40,male,"Mozilla/5.0 (Windows NT 10.0; Win64; x64) AppleWebKit/537.36 (KHTML, like Gecko) Chrome/67.0.3396.99 Safari/537.36",382.062,hispanic,864,215.977,2,531,127,right,Repeat,2,62,2,shape,0
1536,658,A174Y3C2S7LYP6,25,714,"Eugene. Didn't encounter any bugs. Instructions were very clear, task was easy to understand. From opening your document in slack to this page, it took ~14.5 minutes. Overall, it seems to be easy to use and functioning properly. ",378XPAWRUDXN57GX3I3ENYLSYTPIAS,white,corrected,01/07/2018@11:57:40,male,"Mozilla/5.0 (Windows NT 10.0; Win64; x64) AppleWebKit/537.36 (KHTML, like Gecko) Chrome/67.0.3396.99 Safari/537.36",382.062,hispanic,864,215.977,2,358,129,right,Repeat,2,63,2,shape,0
1536,658,A174Y3C2S7LYP6,25,714,"Eugene. Didn't encounter any bugs. Instructions were very clear, task was easy to understand. From opening your document in slack to this page, it took ~14.5 minutes. Overall, it seems to be easy to use and functioning properly. ",378XPAWRUDXN57GX3I3ENYLSYTPIAS,white,corrected,01/07/2018@11:57:40,male,"Mozilla/5.0 (Windows NT 10.0; Win64; x64) AppleWebKit/537.36 (KHTML, like Gecko) Chrome/67.0.3396.99 Safari/537.36",382.062,hispanic,864,215.977,2,518,131,right,Repeat,2,64,2,shape,0
1536,658,A174Y3C2S7LYP6,25,714,"Eugene. Didn't encounter any bugs. Instructions were very clear, task was easy to understand. From opening your document in slack to this page, it took ~14.5 minutes. Overall, it seems to be easy to use and functioning properly. ",378XPAWRUDXN57GX3I3ENYLSYTPIAS,white,corrected,01/07/2018@11:57:40,male,"Mozilla/5.0 (Windows NT 10.0; Win64; x64) AppleWebKit/537.36 (KHTML, like Gecko) Chrome/67.0.3396.99 Safari/537.36",382.062,hispanic,864,215.977,2,920,134,left,Switch,2,65,3,color,0
1536,658,A174Y3C2S7LYP6,25,714,"Eugene. Didn't encounter any bugs. Instructions were very clear, task was easy to understand. From opening your document in slack to this page, it took ~14.5 minutes. Overall, it seems to be easy to use and functioning properly. ",378XPAWRUDXN57GX3I3ENYLSYTPIAS,white,corrected,01/07/2018@11:57:40,male,"Mozilla/5.0 (Windows NT 10.0; Win64; x64) AppleWebKit/537.36 (KHTML, like Gecko) Chrome/67.0.3396.99 Safari/537.36",382.062,hispanic,864,215.977,2,2578,136,left,Repeat,2,66,2,color,0
1536,658,A174Y3C2S7LYP6,25,714,"Eugene. Didn't encounter any bugs. Instructions were very clear, task was easy to understand. From opening your document in slack to this page, it took ~14.5 minutes. Overall, it seems to be easy to use and functioning properly. ",378XPAWRUDXN57GX3I3ENYLSYTPIAS,white,corrected,01/07/2018@11:57:40,male,"Mozilla/5.0 (Windows NT 10.0; Win64; x64) AppleWebKit/537.36 (KHTML, like Gecko) Chrome/67.0.3396.99 Safari/537.36",382.062,hispanic,864,215.977,2,706,139,right,Switch,3,67,2,shape,0
1536,658,A174Y3C2S7LYP6,25,714,"Eugene. Didn't encounter any bugs. Instructions were very clear, task was easy to understand. From opening your document in slack to this page, it took ~14.5 minutes. Overall, it seems to be easy to use and functioning properly. ",378XPAWRUDXN57GX3I3ENYLSYTPIAS,white,corrected,01/07/2018@11:57:40,male,"Mozilla/5.0 (Windows NT 10.0; Win64; x64) AppleWebKit/537.36 (KHTML, like Gecko) Chrome/67.0.3396.99 Safari/537.36",382.062,hispanic,864,215.977,2,650,142,right,Repeat,3,68,2,shape,0
1536,658,A174Y3C2S7LYP6,25,714,"Eugene. Didn't encounter any bugs. Instructions were very clear, task was easy to understand. From opening your document in slack to this page, it took ~14.5 minutes. Overall, it seems to be easy to use and functioning properly. ",378XPAWRUDXN57GX3I3ENYLSYTPIAS,white,corrected,01/07/2018@11:57:40,male,"Mozilla/5.0 (Windows NT 10.0; Win64; x64) AppleWebKit/537.36 (KHTML, like Gecko) Chrome/67.0.3396.99 Safari/537.36",382.062,hispanic,864,215.977,2,519,145,right,Repeat,3,69,2,shape,0
1536,658,A174Y3C2S7LYP6,25,714,"Eugene. Didn't encounter any bugs. Instructions were very clear, task was easy to understand. From opening your document in slack to this page, it took ~14.5 minutes. Overall, it seems to be easy to use and functioning properly. ",378XPAWRUDXN57GX3I3ENYLSYTPIAS,white,corrected,01/07/2018@11:57:40,male,"Mozilla/5.0 (Windows NT 10.0; Win64; x64) AppleWebKit/537.36 (KHTML, like Gecko) Chrome/67.0.3396.99 Safari/537.36",382.062,hispanic,864,215.977,2,271,145,right,Repeat,3,70,2,shape,1
1536,658,A174Y3C2S7LYP6,25,714,"Eugene. Didn't encounter any bugs. Instructions were very clear, task was easy to understand. From opening your document in slack to this page, it took ~14.5 minutes. Overall, it seems to be easy to use and functioning properly. ",378XPAWRUDXN57GX3I3ENYLSYTPIAS,white,corrected,01/07/2018@11:57:40,male,"Mozilla/5.0 (Windows NT 10.0; Win64; x64) AppleWebKit/537.36 (KHTML, like Gecko) Chrome/67.0.3396.99 Safari/537.36",382.062,hispanic,864,215.977,2,561,145,right,Repeat,2,71,2,shape,1
1536,658,A174Y3C2S7LYP6,25,714,"Eugene. Didn't encounter any bugs. Instructions were very clear, task was easy to understand. From opening your document in slack to this page, it took ~14.5 minutes. Overall, it seems to be easy to use and functioning properly. ",378XPAWRUDXN57GX3I3ENYLSYTPIAS,white,corrected,01/07/2018@11:57:40,male,"Mozilla/5.0 (Windows NT 10.0; Win64; x64) AppleWebKit/537.36 (KHTML, like Gecko) Chrome/67.0.3396.99 Safari/537.36",382.062,hispanic,864,215.977,2,1986,148,left,Switch,2,72,3,color,0
1536,658,A174Y3C2S7LYP6,25,714,"Eugene. Didn't encounter any bugs. Instructions were very clear, task was easy to understand. From opening your document in slack to this page, it took ~14.5 minutes. Overall, it seems to be easy to use and functioning properly. ",378XPAWRUDXN57GX3I3ENYLSYTPIAS,white,corrected,01/07/2018@11:57:40,male,"Mozilla/5.0 (Windows NT 10.0; Win64; x64) AppleWebKit/537.36 (KHTML, like Gecko) Chrome/67.0.3396.99 Safari/537.36",382.062,hispanic,864,215.977,2,1027,151,left,Repeat,2,73,3,color,0
1536,658,A174Y3C2S7LYP6,25,714,"Eugene. Didn't encounter any bugs. Instructions were very clear, task was easy to understand. From opening your document in slack to this page, it took ~14.5 minutes. Overall, it seems to be easy to use and functioning properly. ",378XPAWRUDXN57GX3I3ENYLSYTPIAS,white,corrected,01/07/2018@11:57:40,male,"Mozilla/5.0 (Windows NT 10.0; Win64; x64) AppleWebKit/537.36 (KHTML, like Gecko) Chrome/67.0.3396.99 Safari/537.36",382.062,hispanic,864,215.977,2,1084,154,left,Repeat,2,74,3,color,0
1536,658,A174Y3C2S7LYP6,25,714,"Eugene. Didn't encounter any bugs. Instructions were very clear, task was easy to understand. From opening your document in slack to this page, it took ~14.5 minutes. Overall, it seems to be easy to use and functioning properly. ",378XPAWRUDXN57GX3I3ENYLSYTPIAS,white,corrected,01/07/2018@11:57:40,male,"Mozilla/5.0 (Windows NT 10.0; Win64; x64) AppleWebKit/537.36 (KHTML, like Gecko) Chrome/67.0.3396.99 Safari/537.36",382.062,hispanic,864,215.977,2,784,157,right,Switch,3,75,2,shape,0
1536,658,A174Y3C2S7LYP6,25,714,"Eugene. Didn't encounter any bugs. Instructions were very clear, task was easy to understand. From opening your document in slack to this page, it took ~14.5 minutes. Overall, it seems to be easy to use and functioning properly. ",378XPAWRUDXN57GX3I3ENYLSYTPIAS,white,corrected,01/07/2018@11:57:40,male,"Mozilla/5.0 (Windows NT 10.0; Win64; x64) AppleWebKit/537.36 (KHTML, like Gecko) Chrome/67.0.3396.99 Safari/537.36",382.062,hispanic,864,215.977,2,730,157,right,Repeat,3,76,3,shape,1
1536,658,A174Y3C2S7LYP6,25,714,"Eugene. Didn't encounter any bugs. Instructions were very clear, task was easy to understand. From opening your document in slack to this page, it took ~14.5 minutes. Overall, it seems to be easy to use and functioning properly. ",378XPAWRUDXN57GX3I3ENYLSYTPIAS,white,corrected,01/07/2018@11:57:40,male,"Mozilla/5.0 (Windows NT 10.0; Win64; x64) AppleWebKit/537.36 (KHTML, like Gecko) Chrome/67.0.3396.99 Safari/537.36",382.062,hispanic,864,215.977,2,2127,160,left,Switch,2,77,3,color,0
1536,658,A174Y3C2S7LYP6,25,714,"Eugene. Didn't encounter any bugs. Instructions were very clear, task was easy to understand. From opening your document in slack to this page, it took ~14.5 minutes. Overall, it seems to be easy to use and functioning properly. ",378XPAWRUDXN57GX3I3ENYLSYTPIAS,white,corrected,01/07/2018@11:57:40,male,"Mozilla/5.0 (Windows NT 10.0; Win64; x64) AppleWebKit/537.36 (KHTML, like Gecko) Chrome/67.0.3396.99 Safari/537.36",382.062,hispanic,864,215.977,2,695,163,left,Repeat,2,78,3,color,0
1536,658,A174Y3C2S7LYP6,25,714,"Eugene. Didn't encounter any bugs. Instructions were very clear, task was easy to understand. From opening your document in slack to this page, it took ~14.5 minutes. Overall, it seems to be easy to use and functioning properly. ",378XPAWRUDXN57GX3I3ENYLSYTPIAS,white,corrected,01/07/2018@11:57:40,male,"Mozilla/5.0 (Windows NT 10.0; Win64; x64) AppleWebKit/537.36 (KHTML, like Gecko) Chrome/67.0.3396.99 Safari/537.36",382.062,hispanic,864,215.977,2,906,163,right,Switch,3,79,2,shape,1
1536,658,A174Y3C2S7LYP6,25,714,"Eugene. Didn't encounter any bugs. Instructions were very clear, task was easy to understand. From opening your document in slack to this page, it took ~14.5 minutes. Overall, it seems to be easy to use and functioning properly. ",378XPAWRUDXN57GX3I3ENYLSYTPIAS,white,corrected,01/07/2018@11:57:40,male,"Mozilla/5.0 (Windows NT 10.0; Win64; x64) AppleWebKit/537.36 (KHTML, like Gecko) Chrome/67.0.3396.99 Safari/537.36",382.062,hispanic,864,215.977,2,575,166,right,Repeat,3,80,2,shape,0
